time,seconds_elapsed,z,y,x
1716557800293514000,0.372513916015625,-0.049102783203125,-0.120574951171875,0.1253509521484375
1716557800304012000,0.383011962890625,-0.0650787353515625,-0.190887451171875,0.073150634765625
1716557800314510000,0.393510009765625,-0.0778656005859375,-0.2643890380859375,0.0007171630859375
1716557800325008100,0.404008056640625,-0.0980987548828125,-0.3325653076171875,-0.0930328369140625
1716557800335445000,0.414445068359375,-0.1311187744140625,-0.3677215576171875,-0.1931610107421875
1716557800345912600,0.42491259765625,-0.16094970703125,-0.3560028076171875,-0.2826385498046875
1716557800356319000,0.435319091796875,-0.171600341796875,-0.31658935546875,-0.3423004150390625
1716557800366756000,0.445756103515625,-0.1460418701171875,-0.256927490234375,-0.3668060302734375
1716557800377132000,0.456132080078125,-0.0842437744140625,-0.1866302490234375,-0.3742523193359375
1716557800387538400,0.466538330078125,-0.0064849853515625,-0.1195068359375,-0.371063232421875
1716557800397914600,0.47691455078125,0.087249755859375,-0.0619964599609375,-0.368927001953125
1716557800408260000,0.487260009765625,0.1735382080078125,-0.018310546875,-0.371063232421875
1716557800418605600,0.49760546875,0.2342681884765625,0.0115203857421875,-0.357208251953125
1716557800428950800,0.50795068359375,0.272613525390625,0.025360107421875,-0.312469482421875
1716557800439296300,0.518296142578125,0.3035125732421875,0.0115203857421875,-0.232574462890625
1716557800449611300,0.528611328125,0.3439788818359375,-0.03216552734375,-0.128173828125
1716557800459926300,0.53892626953125,0.4036407470703125,-0.0928802490234375,-0.041900634765625
1716557800470210600,0.54921044921875,0.4920501708984375,-0.157867431640625,-0.0077972412109375
1716557800480525600,0.559525634765625,0.603912353515625,-0.20367431640625,-0.0248565673828125
1716557800490810000,0.56981005859375,0.718963623046875,-0.20367431640625,-0.0695953369140625
1716557800501064000,0.58006396484375,0.80950927734375,-0.181304931640625,-0.1239166259765625
1716557800511348500,0.590348388671875,0.864898681640625,-0.167449951171875,-0.186767578125
1716557800521602300,0.600602294921875,0.8851470947265625,-0.16851806640625,-0.233642578125
1716557800531856100,0.610856201171875,0.876617431640625,-0.1631927490234375,-0.232574462890625
1716557800542110200,0.621110107421875,0.855316162109375,-0.177032470703125,-0.1942291259765625
1716557800552364000,0.631364013671875,0.834014892578125,-0.1834259033203125,-0.1249847412109375
1716557800562587400,0.64158740234375,0.82122802734375,-0.1504058837890625,0.00604248046875
1716557800572810800,0.651810791015625,0.8233489990234375,-0.1269683837890625,0.2063140869140625
1716557800583064600,0.662064697265625,0.8499908447265625,-0.1599884033203125,0.4012603759765625
1716557800593288200,0.6722880859375,0.9149627685546875,-0.0683746337890625,0.517364501953125
1716557800603480800,0.682480712890625,0.968231201171875,-0.157867431640625,0.56744384765625
1716557800613704400,0.692704345703125,0.8617095947265625,-0.693695068359375,0.7059173583984375
1716557800623927800,0.702927734375,0.52081298828125,-0.1365509033203125,1.24920654296875
1716557800634120700,0.71312060546875,0.192718505859375,-0.0800933837890625,1.6220550537109375
1716557800644313300,0.723313232421875,0.2225494384765625,-0.5967559814453125,1.1522674560546875
1716557800654537000,0.733536865234375,0.1501007080078125,-0.0161895751953125,0.9253692626953125
1716557800664729600,0.7437294921875,0.2236175537109375,0.2171173095703125,0.57489013671875
1716557800674922500,0.753922607421875,0.3802032470703125,0.074371337890625,0.07208251953125
1716557800685085000,0.7640849609375,0.5154876708984375,0.070098876953125,-0.298614501953125
1716557800695277800,0.77427783203125,0.5655670166015625,0.070098876953125,-0.4914398193359375
1716557800705470700,0.784470703125,0.514434814453125,-0.0470733642578125,-0.5468292236328125
1716557800715633200,0.794633056640625,0.4494476318359375,-0.2079315185546875,-0.54150390625
1716557800725825800,0.80482568359375,0.397247314453125,-0.3900909423828125,-0.5255279541015625
1716557800735988200,0.81498828125,0.3791351318359375,-0.553070068359375,-0.497833251953125
1716557800746181000,0.82518115234375,0.37274169921875,-0.67877197265625,-0.450958251953125
1716557800756343600,0.835343505859375,0.3482513427734375,-0.7799835205078125,-0.4647979736328125
1716557800766505700,0.845505615234375,0.3003082275390625,-0.8034210205078125,-0.5255279541015625
1716557800776668200,0.855668212890625,0.250244140625,-0.7203216552734375,-0.56280517578125
1716557800786830600,0.86583056640625,0.22467041015625,-0.590362548828125,-0.5670623779296875
1716557800797023500,0.8760234375,0.2545013427734375,-0.4454803466796875,-0.55322265625
1716557800807185700,0.886185546875,0.25238037109375,-0.3687896728515625,-1.2637481689453125
1716557800817317600,0.896317626953125,0.3258819580078125,0.4184417724609375,-1.1273956298828125
1716557800827480000,0.90647998046875,0.317352294921875,0.6751708984375,-1.13165283203125
1716557800837642200,0.916642333984375,0.2992401123046875,0.80194091796875,-0.846160888671875
1716557800847804700,0.9268046875,0.2225494384765625,0.8115234375,-0.5351104736328125
1716557800857967000,0.936967041015625,0.0840606689453125,0.8061981201171875,-0.2070159912109375
1716557800868129300,0.94712939453125,0.0403900146484375,0.6517333984375,0.0678253173828125
1716557800878261200,0.95726123046875,0.0616912841796875,0.42803955078125,0.27130126953125
1716557800888423700,0.967423583984375,0.09259033203125,0.2597198486328125,0.4321441650390625
1716557800898585900,0.9775859375,0.091522216796875,0.12762451171875,0.57489013671875
1716557800908717800,0.9877177734375,0.0787353515625,-0.007659912109375,0.702728271484375
1716557800918880000,0.9978798828125,0.08831787109375,-0.089691162109375,0.74639892578125
1716557800929012000,1.008011962890625,0.122406005859375,-0.0470733642578125,0.702728271484375
1716557800939174400,1.01817431640625,0.144775390625,0.1031341552734375,0.5610504150390625
1716557800949306000,1.02830615234375,0.133056640625,0.27569580078125,0.3639678955078125
1716557800959468500,1.038468505859375,0.0936431884765625,0.3854217529296875,0.09979248046875
1716557800969600300,1.048600341796875,0.0265350341796875,0.4653167724609375,-0.1590728759765625
1716557800979762700,1.0587626953125,-0.0544281005859375,0.506866455078125,-0.3540191650390625
1716557800989894400,1.068894287109375,-0.1162109375,0.538818359375,-0.44989013671875
1716557801000026400,1.0790263671875,-0.1396484375,0.586761474609375,-0.4328460693359375
1716557801010188800,1.089188720703125,-0.1353759765625,0.6006011962890625,-0.3401641845703125
1716557801020320500,1.099320556640625,-0.113006591796875,0.5675811767578125,-0.2048797607421875
1716557801030452500,1.109452392578125,-0.070404052734375,0.514312744140625,-0.037628173828125
1716557801040614700,1.11961474609375,-0.03631591796875,0.4195098876953125,0.1274871826171875
1716557801050746600,1.12974658203125,-0.0107421875,0.27783203125,0.2382659912109375
1716557801060878300,1.13987841796875,0.0073699951171875,0.1553192138671875,0.277679443359375
1716557801071010300,1.15001025390625,0.0254669189453125,0.0999298095703125,0.277679443359375
1716557801081172500,1.16017236328125,0.05316162109375,0.1127166748046875,0.25531005859375
1716557801091304400,1.170304443359375,0.087249755859375,0.1766357421875,0.20098876953125
1716557801101436200,1.180436279296875,0.114959716796875,0.2714385986328125,0.120025634765625
1716557801111568100,1.190568115234375,0.1298675537109375,0.366241455078125,0.028411865234375
1716557801121730600,1.20073046875,0.1309356689453125,0.4301605224609375,-0.0472259521484375
1716557801131862300,1.2108623046875,0.1138916015625,0.43548583984375,-0.0908966064453125
1716557801141994200,1.220994140625,0.0936431884765625,0.3758392333984375,-0.096221923828125
1716557801152126000,1.2311259765625,0.0829925537109375,0.26824951171875,-0.06427001953125
1716557801162258000,1.2412578125,0.07659912109375,0.1531982421875,-0.00567626953125
1716557801172420000,1.251420166015625,0.0638275146484375,0.0871429443359375,0.0337371826171875
1716557801182552000,1.261552001953125,0.0499725341796875,0.107391357421875,0.042266845703125
1716557801192683800,1.271683837890625,0.0414581298828125,0.2458648681640625,0.030548095703125
1716557801202815700,1.281815673828125,0.0403900146484375,0.4535980224609375,0.0124359130859375
1716557801212947500,1.291947509765625,0.0414581298828125,0.6038055419921875,-0.0003509521484375
1716557801223079400,1.302079345703125,0.0244140625,0.6038055419921875,-0.0120697021484375
1716557801233211100,1.312211181640625,-0.0203399658203125,0.377960205078125,-0.0429534912109375
1716557801243343000,1.322343017578125,-0.0874481201171875,-0.021514892578125,-0.1569366455078125
1716557801253474800,1.332474853515625,-0.159881591796875,-0.4135284423828125,-0.35614013671875
1716557801263606800,1.342606689453125,-0.2451019287109375,-0.704345703125,-0.54364013671875
1716557801273769000,1.35276904296875,-0.342041015625,-0.8119354248046875,-0.6139373779296875
1716557801283901000,1.36290087890625,-0.446441650390625,-0.716064453125,-0.495697021484375
1716557801294032600,1.37303271484375,-0.5103607177734375,-0.397552490234375,-0.197418212890625
1716557801304164600,1.38316455078125,-0.4943695068359375,-0.0108642578125,0.1935272216796875
1716557801314296300,1.39329638671875,-0.38677978515625,0.288482666015625,0.5610504150390625
1716557801324428300,1.40342822265625,-0.2578887939453125,0.457855224609375,0.8028564453125
1716557801334560000,1.41356005859375,-0.159881591796875,0.550537109375,0.893402099609375
1716557801344692000,1.42369189453125,-0.09063720703125,0.5462799072265625,0.813507080078125
1716557801354823700,1.43382373046875,-0.033111572265625,0.422698974609375,0.5493316650390625
1716557801364955600,1.44395556640625,-0.0107421875,0.2512054443359375,0.17755126953125
1716557801375087400,1.45408740234375,-0.056549072265625,0.1031341552734375,-0.1707916259765625
1716557801385219300,1.46421923828125,-0.148162841796875,0.0093841552734375,-0.3891754150390625
1716557801395351000,1.47435107421875,-0.253631591796875,-0.0619964599609375,-0.458404541015625
1716557801405483000,1.48448291015625,-0.35589599609375,-0.1301727294921875,-0.4232635498046875
1716557801415614700,1.49461474609375,-0.4411163330078125,-0.18023681640625,-0.3284454345703125
1716557801425746700,1.50474658203125,-0.4879913330078125,-0.2249755859375,-0.2272491455078125
1716557801435878400,1.51487841796875,-0.491180419921875,-0.2739715576171875,-0.163330078125
1716557801446010000,1.525010009765625,-0.4666748046875,-0.3006134033203125,-0.1367034912109375
1716557801456142000,1.53514208984375,-0.436859130859375,-0.267578125,-0.128173828125
1716557801466273800,1.545273681640625,-0.4070281982421875,-0.1706390380859375,-0.1207275390625
1716557801476405800,1.55540576171875,-0.3718719482421875,-0.0385589599609375,-0.10687255859375
1716557801486537500,1.565537353515625,-0.3356475830078125,0.093536376953125,-0.084503173828125
1716557801496669400,1.57566943359375,-0.300506591796875,0.1681060791015625,-0.0450897216796875
1716557801506801200,1.58580126953125,-0.284515380859375,0.1819610595703125,0.016693115234375
1716557801516933000,1.59593310546875,-0.284515380859375,0.1414794921875,0.087005615234375
1716557801527064800,1.60606494140625,-0.3015594482421875,0.0456085205078125,0.1636962890625
1716557801537196800,1.61619677734375,-0.329254150390625,-0.0470733642578125,0.22442626953125
1716557801547328500,1.62632861328125,-0.3590850830078125,-0.1035308837890625,0.2521209716796875
1716557801557460500,1.63646044921875,-0.376129150390625,-0.1418914794921875,0.2414703369140625
1716557801567592200,1.64659228515625,-0.377197265625,-0.188751220703125,0.1850128173828125
1716557801577724200,1.65672412109375,-0.3697357177734375,-0.2366943359375,0.1051177978515625
1716557801587856000,1.66685595703125,-0.343109130859375,-0.2526702880859375,0.028411865234375
1716557801597987800,1.67698779296875,-0.2909088134765625,-0.21112060546875,-0.0386962890625
1716557801608119600,1.68711962890625,-0.230194091796875,-0.169586181640625,-0.105804443359375
1716557801618251500,1.69725146484375,-0.181182861328125,-0.169586181640625,-0.1590728759765625
1716557801628383200,1.70738330078125,-0.14923095703125,-0.190887451171875,-0.189971923828125
1716557801638515200,1.71751513671875,-0.1343231201171875,-0.21112060546875,-0.199554443359375
1716557801648647000,1.72764697265625,-0.1396484375,-0.2132568359375,-0.1835784912109375
1716557801658779000,1.73777880859375,-0.1748046875,-0.1951446533203125,-0.1345672607421875
1716557801668910600,1.74791064453125,-0.228057861328125,-0.177032470703125,-0.051483154296875
1716557801679042600,1.75804248046875,-0.2674713134765625,-0.193023681640625,0.0443878173828125
1716557801689174300,1.76817431640625,-0.284515380859375,-0.2196502685546875,0.1370697021484375
1716557801699306200,1.77830615234375,-0.3580169677734375,-0.361328125,0.18927001953125
1716557801709438000,1.78843798828125,-0.3921051025390625,-0.4263153076171875,0.2606353759765625
1716557801719570000,1.79856982421875,-0.208892822265625,-0.1195068359375,0.3511962890625
1716557801729701600,1.80870166015625,0.0403900146484375,-0.017242431640625,0.3746185302734375
1716557801739833600,1.81883349609375,0.2097625732421875,-0.0353546142578125,0.347991943359375
1716557801749965300,1.82896533203125,0.2662200927734375,-0.054534912109375,0.30218505859375
1716557801760097000,1.839096923828125,0.272613525390625,-0.088623046875,0.2574462890625
1716557801770229000,1.84922900390625,0.272613525390625,-0.280364990234375,0.1935272216796875
1716557801780360700,1.859360595703125,0.3045654296875,-0.8641357421875,0.040130615234375
1716557801790492700,1.86949267578125,0.249176025390625,-1.3466949462890625,-0.119659423828125
1716557801800624400,1.879624267578125,0.0829925537109375,-1.3829193115234375,-0.2261810302734375
1716557801810756400,1.88975634765625,-0.1417694091796875,-1.0516204833984375,-0.2645263671875
1716557801820888000,1.89988818359375,-0.3228759765625,-0.625518798828125,-0.246429443359375
1716557801831020000,1.91002001953125,-0.3942413330078125,-0.3996734619140625,-0.187835693359375
1716557801841151700,1.92015185546875,-0.3580169677734375,-0.3080596923828125,-0.1026153564453125
1716557801851283700,1.93028369140625,-0.2578887939453125,-0.1056671142578125,-0.0014190673828125
1716557801861415400,1.94041552734375,-0.1311187744140625,0.27783203125,0.0859375
1716557801871547400,1.95054736328125,-0.0299224853515625,0.68902587890625,0.12322998046875
1716557801881679000,1.96067919921875,0.0393218994140625,0.8168487548828125,0.1242828369140625
1716557801891811000,1.97081103515625,0.0702056884765625,0.586761474609375,0.0901947021484375
1716557801901942800,1.98094287109375,0.04571533203125,0.278900146484375,0.028411865234375
1716557801912074800,1.99107470703125,-0.0405731201171875,0.03814697265625,-0.063201904296875
1716557801922206500,2.00120654296875,-0.1428375244140625,-0.179168701171875,-0.222991943359375
1716557801932338400,2.01133837890625,-0.1875762939453125,-0.418853759765625,-0.4221954345703125
1716557801942470100,2.02147021484375,-0.1332550048828125,-0.668121337890625,-0.552154541015625
1716557801952602000,2.03160205078125,0.0073699951171875,-0.7554779052734375,-0.5148773193359375
1716557801962733800,2.04173388671875,0.17034912109375,-0.67877197265625,-0.2932891845703125
1716557801972865800,2.05186572265625,0.286468505859375,-0.477447509765625,0.0593109130859375
1716557801982997500,2.06199755859375,0.297119140625,-0.247344970703125,0.4140472412109375
1716557801993129500,2.07212939453125,0.2417144775390625,-0.122711181640625,0.608978271484375
1716557802003261200,2.08226123046875,0.178863525390625,-0.12164306640625,0.585540771484375
1716557802013393200,2.09239306640625,0.1298675537109375,-0.1717071533203125,0.3788909912109375
1716557802023524900,2.10252490234375,0.0787353515625,-0.2718505859375,0.0486602783203125
1716557802033656800,2.11265673828125,-0.0107421875,-0.416717529296875,-0.312469482421875
1716557802043788500,2.12278857421875,-0.171600341796875,-0.5136566162109375,-0.6043548583984375
1716557802053920500,2.13292041015625,-0.41021728515625,-0.5594635009765625,-0.7960968017578125
1716557802064052200,2.14305224609375,-0.662689208984375,-0.5924835205078125,-0.931396484375
1716557802074184000,2.153183837890625,-0.8192901611328125,-0.465728759765625,-0.99957275390625
1716557802084316000,2.16331591796875,-0.8299407958984375,-0.200469970703125,-0.99957275390625
1716557802094447600,2.173447509765625,-0.7372589111328125,0.0232391357421875,-0.9484405517578125
1716557802104579600,2.18357958984375,-0.6232757568359375,0.14892578125,-0.8291168212890625
1716557802114711300,2.193711181640625,-0.5295257568359375,0.206451416015625,-0.645904541015625
1716557802124843300,2.20384326171875,-0.4752044677734375,0.1883544921875,-0.4573516845703125
1716557802134975000,2.21397509765625,-0.482666015625,0.0860748291015625,-0.32525634765625
1716557802145107000,2.22410693359375,-0.5721435546875,-0.13336181640625,-0.2730560302734375
1716557802155238700,2.23423876953125,-0.7031707763671875,-0.4252471923828125,-0.2485504150390625
1716557802165370600,2.24437060546875,-0.7809295654296875,-0.6276397705078125,-0.198486328125
1716557802175502300,2.25450244140625,-0.7255401611328125,-0.5818328857421875,-0.0674591064453125
1716557802185634300,2.26463427734375,-0.5764007568359375,-0.4231109619140625,0.0933990478515625
1716557802195766000,2.27476611328125,-0.469879150390625,-0.2516021728515625,0.1605072021484375
1716557802205898000,2.28489794921875,-0.3260650634765625,-0.0832977294921875,0.1594390869140625
1716557802216029700,2.29502978515625,-0.126861572265625,0.1222991943359375,0.157318115234375
1716557802226161700,2.30516162109375,0.01055908203125,0.276763916015625,0.1583709716796875
1716557802236293400,2.31529345703125,0.0126953125,0.278900146484375,0.16583251953125
1716557802246425300,2.32542529296875,-0.0863800048828125,0.0999298095703125,0.1924591064453125
1716557802256557000,2.33555712890625,-0.2355194091796875,-0.2207183837890625,0.213775634765625
1716557802266689000,2.34568896484375,-0.354827880859375,-0.54669189453125,0.244659423828125
1716557802276820700,2.35582080078125,-0.4080963134765625,-0.7821044921875,0.24786376953125
1716557802286952700,2.36595263671875,-0.401702880859375,-0.8694610595703125,0.202056884765625
1716557802297084400,2.37608447265625,-0.35589599609375,-0.7448272705078125,0.1700897216796875
1716557802307216400,2.38621630859375,-0.296234130859375,-0.555206298828125,0.1722259521484375
1716557802317348000,2.39634814453125,-0.2440338134765625,-0.4018096923828125,0.178619384765625
1716557802327480000,2.40647998046875,-0.1779937744140625,-0.256927490234375,0.1519775390625
1716557802337611800,2.41661181640625,-0.124725341796875,-0.169586181640625,0.1051177978515625
1716557802347743700,2.42674365234375,-0.1044921875,-0.1855621337890625,0.0465240478515625
1716557802357875500,2.43687548828125,-0.10235595703125,-0.292083740234375,-0.016326904296875
1716557802368007400,2.44700732421875,-0.113006591796875,-0.40606689453125,-0.07171630859375
1716557802378139100,2.45713916015625,-0.1470947265625,-0.5136566162109375,-0.0994110107421875
1716557802388271000,2.46727099609375,-0.1875762939453125,-0.531768798828125,-0.1228485107421875
1716557802398402800,2.47740283203125,-0.2142181396484375,-0.4710540771484375,-0.1367034912109375
1716557802408534500,2.487534423828125,-0.2056884765625,-0.3666534423828125,-0.17718505859375
1716557802418666500,2.49766650390625,-0.0991668701171875,-0.1866302490234375,-0.2602691650390625
1716557802428798200,2.507798095703125,0.0744781494140625,0.0669097900390625,-0.3699951171875
1716557802438930200,2.51793017578125,0.19378662109375,0.2842254638671875,-0.5148773193359375
1716557802449062000,2.528061767578125,0.216156005859375,0.4024658203125,-0.700225830078125
1716557802459193900,2.53819384765625,0.1778106689453125,0.503662109375,-0.826995849609375
1716557802469325600,2.54832568359375,0.1021728515625,0.55267333984375,-0.824859619140625
1716557802479457500,2.55845751953125,0.0318603515625,0.4546661376953125,-0.7747955322265625
1716557802489589200,2.56858935546875,-0.0032958984375,0.185150146484375,-0.80035400390625
1716557802499721200,2.57872119140625,-0.0086212158203125,-0.0566558837890625,-0.9015655517578125
1716557802509853000,2.58885302734375,0.019073486328125,-0.1823577880859375,-1.01129150390625
1716557802519985000,2.59898486328125,0.0382537841796875,-0.1514739990234375,-1.0155487060546875
1716557802530116600,2.60911669921875,0.035064697265625,0.0178985595703125,-0.8866424560546875
1716557802540248600,2.61924853515625,0.0435791015625,0.20751953125,-0.7055511474609375
1716557802550380300,2.62938037109375,0.1192169189453125,0.370513916015625,-0.552154541015625
1716557802560512300,2.63951220703125,0.237457275390625,0.4748992919921875,-0.507415771484375
1716557802570644000,2.64964404296875,0.308837890625,0.4844970703125,-0.608612060546875
1716557802580776000,2.65977587890625,0.282196044921875,0.4173736572265625,-0.74603271484375
1716557802590907600,2.66990771484375,0.204437255859375,0.3598480224609375,-0.84722900390625
1716557802601039600,2.68003955078125,0.15863037109375,0.28741455078125,-0.8898468017578125
1716557802611140900,2.690140869140625,0.145843505859375,0.1776885986328125,-0.85150146484375
1716557802621272600,2.7002724609375,0.145843505859375,0.09674072265625,-0.7609405517578125
1716557802631404500,2.710404541015625,0.1959075927734375,0.0424041748046875,-0.6778564453125
1716557802641536300,2.720536376953125,0.282196044921875,0.060516357421875,-0.5958251953125
1716557802651668200,2.730668212890625,0.3343963623046875,0.070098876953125,-0.5351104736328125
1716557802661800000,2.740800048828125,0.3141632080078125,0.0115203857421875,-0.5106048583984375
1716557802671932000,2.750931884765625,0.2566375732421875,-0.0342864990234375,-0.472259521484375
1716557802682063600,2.761063720703125,0.180999755859375,-0.0907440185546875,-0.394500732421875
1716557802692195600,2.771195556640625,0.1096343994140625,-0.2100677490234375,-0.3188629150390625
1716557802702327300,2.781327392578125,0.06915283203125,-0.383697509765625,-0.268798828125
1716557802712459300,2.791459228515625,0.0979156494140625,-0.51153564453125,-0.234710693359375
1716557802722591000,2.801591064453125,0.1607666015625,-0.611663818359375,-0.1952972412109375
1716557802732723000,2.811722900390625,0.1628875732421875,-0.6723785400390625,-0.110076904296875
1716557802742854700,2.821854736328125,0.1096343994140625,-0.679840087890625,0.015625
1716557802752986600,2.831986572265625,0.1085662841796875,-0.680908203125,0.11151123046875
1716557802763118300,2.842118408203125,0.218292236328125,-0.681976318359375,0.096588134765625
1716557802773250300,2.852250244140625,0.366363525390625,-0.6276397705078125,-0.05999755859375
1716557802783382000,2.862382080078125,0.4856719970703125,-0.5637359619140625,-0.267730712890625
1716557802793514000,2.872513916015625,0.512298583984375,-0.496612548828125,-0.4403076171875
1716557802803645700,2.882645751953125,0.4260101318359375,-0.395416259765625,-0.50421142578125
1716557802813777700,2.892777587890625,0.3450469970703125,-0.3229827880859375,-0.4765167236328125
1716557802823909400,2.902909423828125,0.5059051513671875,-0.3091278076171875,-0.4754486083984375
1716557802834041300,2.913041259765625,1.0875396728515625,-0.337890625,-0.5947723388671875
1716557802844173000,2.923173095703125,1.5658416748046875,-0.3208465576171875,-0.5894317626953125
1716557802854305000,2.933304931640625,1.410308837890625,-0.07476806640625,-0.4988861083984375
1716557802864436700,2.943436767578125,0.728546142578125,0.309783935546875,-0.417938232421875
1716557802874568700,2.953568603515625,0.0947113037109375,0.5665130615234375,-0.4051513671875
1716557802884700400,2.963700439453125,-0.0853118896484375,0.493011474609375,-0.429656982421875
1716557802894832000,2.97383203125,-0.0032958984375,0.457855224609375,-0.3976898193359375
1716557802904964000,2.983964111328125,0.1511688232421875,0.41632080078125,-0.3881072998046875
1716557802915095800,2.994095703125,0.2310638427734375,0.382232666015625,-0.43603515625
1716557802925227800,3.004227783203125,0.1884613037109375,0.4408111572265625,-0.5233917236328125
1716557802935359500,3.014359375,0.079803466796875,0.504730224609375,-0.5915679931640625
1716557802945491500,3.024491455078125,-0.0341796875,0.448272705078125,-0.6128692626953125
1716557802955623200,3.034623046875,-0.1417694091796875,0.2735748291015625,-0.5904998779296875
1716557802965755100,3.044755126953125,-0.2365875244140625,0.060516357421875,-0.5564117431640625
1716557802975886800,3.054886962890625,-0.2781219482421875,-0.18768310546875,-0.49676513671875
1716557802986018800,3.065018798828125,-0.26214599609375,-0.4944915771484375,-0.35614013671875
1716557802996150500,3.075150634765625,-0.171600341796875,-0.82684326171875,-0.1271209716796875
1716557803006282500,3.085282470703125,-0.011810302734375,-1.1368408203125,0.1147003173828125
1716557803016414200,3.095414306640625,0.1320037841796875,-1.3147430419921875,0.2521209716796875
1716557803026546200,3.105546142578125,0.17034912109375,-1.2476348876953125,0.199920654296875
1716557803036678000,3.115677978515625,0.103240966796875,-1.05694580078125,-0.02911376953125
1716557803046809900,3.125809814453125,-0.0086212158203125,-0.8375091552734375,-0.333770751953125
1716557803056941600,3.135941650390625,-0.1236724853515625,-0.645751953125,-0.6608123779296875
1716557803067073500,3.146073486328125,-0.1939697265625,-0.451873779296875,-1.0517578125
1716557803077205200,3.156205322265625,-0.24298095703125,-0.2718505859375,-1.4384613037109375
1716557803087337200,3.166337158203125,-0.3058319091796875,-0.1493377685546875,-1.7196807861328125
1716557803097469000,3.176468994140625,-0.2664031982421875,-0.135498046875,-1.84112548828125
1716557803107601000,3.186600830078125,-0.113006591796875,-0.1962127685546875,-1.73779296875
1716557803117732600,3.196732666015625,0.09259033203125,-0.3070068359375,-1.3660125732421875
1716557803127864600,3.206864501953125,0.3098907470703125,-0.4859619140625,-0.76947021484375
1716557803137996300,3.216996337890625,0.521881103515625,-0.7299041748046875,-0.1249847412109375
1716557803148128300,3.227128173828125,0.7317352294921875,-1.0857086181640625,0.3341522216796875
1716557803158260000,3.237260009765625,0.9554443359375,-1.467071533203125,0.4129791259765625
1716557803168388900,3.247388916015625,1.266510009765625,-1.7941131591796875,0.1519775390625
1716557803178520800,3.257520751953125,1.5754241943359375,-1.9997100830078125,-0.2474822998046875
1716557803188652500,3.267652587890625,1.7021942138671875,-1.9645538330078125,-0.6160736083984375
1716557803198784500,3.277784423828125,1.6414794921875,-1.6321868896484375,-0.884521484375
1716557803208916200,3.287916259765625,1.5125885009765625,-1.2092742919921875,-1.0400390625
1716557803219048200,3.298048095703125,1.367706298828125,-0.9855804443359375,-1.08905029296875
1716557803229180000,3.308179931640625,1.273956298828125,-0.9834442138671875,-1.099700927734375
1716557803239312000,3.318311767578125,1.24200439453125,-1.09423828125,-1.1508331298828125
1716557803249443600,3.328443603515625,1.2388153076171875,-1.29876708984375,-1.2104949951171875
1716557803259575600,3.338575439453125,1.29632568359375,-1.6769256591796875,-1.2179412841796875
1716557803269707300,3.348707275390625,1.414581298828125,-2.240447998046875,-1.154022216796875
1716557803279839200,3.358839111328125,1.517913818359375,-3.0489959716796875,-1.0091552734375
1716557803289971000,3.368970947265625,1.5711669921875,-4.0034637451171875,-0.782257080078125
1716557803300103000,3.37910302734375,1.6361541748046875,-5.0442352294921875,-0.493560791015625
1716557803310234600,3.389234619140625,1.788482666015625,-6.190460205078125,-0.154815673828125
1716557803320366600,3.39936669921875,1.969573974609375,-7.3707733154296875,0.305389404296875
1716557803330498300,3.409498291015625,2.1570587158203125,-8.249618530273438,0.90618896484375
1716557803340630300,3.41963037109375,2.3424224853515625,-8.678909301757812,1.5187225341796875
1716557803350762000,3.429761962890625,2.521392822265625,-8.660797119140625,1.96612548828125
1716557803360863200,3.43986328125,2.713134765625,-8.248550415039062,2.195159912109375
1716557803370995200,3.4499951171875,2.9336395263671875,-7.4506683349609375,2.1876983642578125
1716557803381127000,3.460126953125,3.1733245849609375,-6.3438568115234375,2.0641326904296875
1716557803391259000,3.4702587890625,3.27239990234375,-5.161407470703125,1.8691864013671875
1716557803401390600,3.480390625,3.3459014892578125,-4.0077362060546875,1.6550750732421875
1716557803411522600,3.4905224609375,3.46734619140625,-3.020233154296875,1.5400238037109375
1716557803421654300,3.500654296875,3.508880615234375,-2.3032989501953125,1.5528106689453125
1716557803431786200,3.5107861328125,3.4002227783203125,-1.6811981201171875,1.7221832275390625
1716557803441918000,3.52091796875,3.08917236328125,-1.1837158203125,2.03857421875
1716557803452050000,3.5310498046875,2.7291107177734375,-0.888641357421875,2.467864990234375
1716557803462181600,3.541181640625,2.4713134765625,-0.7331085205078125,2.927001953125
1716557803472313600,3.551313720703125,2.3637237548828125,-0.65960693359375,3.360565185546875
1716557803482445300,3.5614453125,2.2966156005859375,-0.7000885009765625,3.6950531005859375
1716557803492577300,3.571577392578125,2.1506805419921875,-1.1634674072265625,3.8974609375
1716557803502709000,3.581708984375,1.858795166015625,-1.8931732177734375,4.0604400634765625
1716557803512841000,3.591841064453125,1.3687744140625,-3.074554443359375,4.190399169921875
1716557803522972700,3.60197265625,0.7924652099609375,-5.0101470947265625,3.82928466796875
1716557803533104400,3.6121044921875,0.298187255859375,-6.1691436767578125,2.994110107421875
1716557803543236400,3.622236328125,0.24810791015625,-5.8975067138671875,2.2920989990234375
1716557803553368000,3.6323681640625,0.5037689208984375,-4.6532745361328125,1.6114044189453125
1716557803563500000,3.6425,0.807373046875,-3.2205047607421875,0.8912811279296875
1716557803573631700,3.6526318359375,1.081146240234375,-2.2255401611328125,0.498199462890625
1716557803583763700,3.662763671875,1.1993865966796875,-1.7834625244140625,0.5003204345703125
1716557803593895400,3.6728955078125,1.19512939453125,-1.5182037353515625,0.8018035888671875
1716557803604027400,3.68302734375,1.182342529296875,-1.2124786376953125,1.092620849609375
1716557803614159000,3.6931591796875,1.30804443359375,-1.126190185546875,1.043609619140625
1716557803624291000,3.703291015625,1.5658416748046875,-1.1560211181640625,0.7900848388671875
1716557803634422800,3.7134228515625,1.9205780029296875,-1.236968994140625,0.6483917236328125
1716557803644554800,3.7235546875,2.24334716796875,-1.59063720703125,0.437469482421875
1716557803654686500,3.7336865234375,2.4521484375,-2.08172607421875,0.0102996826171875
1716557803664818400,3.743818359375,2.5128631591796875,-2.5813446044921875,-0.483978271484375
1716557803674950100,3.7539501953125,2.4084625244140625,-3.039398193359375,-0.63311767578125
1716557803685082000,3.76408203125,2.1229705810546875,-3.3387451171875,-0.46160888671875
1716557803695213800,3.7742138671875,1.767181396484375,-3.155517578125,-0.3998260498046875
1716557803705345800,3.784345703125,1.2153778076171875,-1.959228515625,-0.5468292236328125
1716557803715477500,3.7944775390625,0.8851470947265625,1.2078094482421875,-1.0155487060546875
1716557803725609500,3.804609375,0.70831298828125,3.5396728515625,-1.405426025390625
1716557803735741200,3.8147412109375,0.20550537109375,2.66082763671875,-0.9090118408203125
1716557803745873200,3.824873046875,-0.12579345703125,0.4781036376953125,-0.0035400390625
1716557803756004900,3.8350048828125,-0.263214111328125,-1.206085205078125,0.4896697998046875
1716557803766136800,3.84513671875,-0.3015594482421875,-2.279876708984375,0.4662322998046875
1716557803776268500,3.8552685546875,-0.2568206787109375,-2.6015777587890625,0.1988525390625
1716557803786400500,3.865400390625,-0.1918487548828125,-2.20849609375,-0.0450897216796875
1716557803796532200,3.8755322265625,-0.16094970703125,-1.92620849609375,-0.230438232421875
1716557803806664200,3.885664306640625,0.0361175537109375,-1.5214080810546875,-0.3540191650390625
1716557803816796000,3.8957958984375,0.2342681884765625,-1.0516204833984375,-0.4083404541015625
1716557803826927900,3.905927978515625,0.1160125732421875,-0.975982666015625,-0.5095367431640625
1716557803837059600,3.9160595703125,-0.12579345703125,-0.294219970703125,-1.01129150390625
1716557803847191600,3.926191650390625,-0.16094970703125,0.58355712890625,-1.1838531494140625
1716557803857323300,3.9363232421875,0.07659912109375,0.0008544921875,-0.4094085693359375
1716557803867455000,3.946455078125,0.24810791015625,-1.1443023681640625,0.2808837890625
1716557803877587000,3.9565869140625,0.6081695556640625,-1.295562744140625,0.441741943359375
1716557803887718700,3.96671875,1.1226959228515625,-0.1663818359375,0.667572021484375
1716557803897850600,3.9768505859375,1.469970703125,0.6229705810546875,0.9552001953125
1716557803907982300,3.986982421875,1.5008697509765625,0.6570587158203125,0.989288330078125
1716557803918114300,3.9971142578125,1.595672607421875,0.734832763671875,0.9040679931640625
1716557803928246000,4.00724609375,1.6713104248046875,1.077850341796875,0.8209686279296875
1716557803938378000,4.0173779296875,1.6148529052734375,1.2269744873046875,0.57916259765625
1716557803948509700,4.027509765625,1.5562591552734375,1.440032958984375,0.346923828125
1716557803958641700,4.0376416015625,1.605255126953125,1.806488037109375,0.1349334716796875
1716557803968773400,4.0477734375,1.597808837890625,2.3433837890625,-0.082366943359375
1716557803978905300,4.0579052734375,1.75439453125,3.2584381103515625,-0.427520751953125
1716557803989037000,4.068037109375,1.7139129638671875,4.494140625,-1.0134124755859375
1716557803999169000,4.0781689453125,1.3954010009765625,4.7359619140625,-1.37347412109375
1716557804009300700,4.08830078125,1.30059814453125,3.117828369140625,-0.4200592041015625
1716557804019432700,4.0984326171875,1.252655029296875,2.4136810302734375,0.0135040283203125
1716557804029564400,4.108564453125,1.2451934814453125,1.1620025634765625,0.3554534912109375
1716557804039696400,4.1186962890625,1.2867431640625,0.01470947265625,0.6025848388671875
1716557804049828000,4.128828125,1.4965972900390625,0.31298828125,0.5418701171875
1716557804059960000,4.1389599609375,1.7266998291015625,2.0024871826171875,-0.0813140869140625
1716557804070091800,4.149091796875,1.6915435791015625,3.402252197265625,-0.8749237060546875
1716557804080223700,4.1592236328125,1.5232391357421875,4.23529052734375,-1.031524658203125
1716557804090355500,4.16935546875,1.311248779296875,4.3759002685546875,-0.802490234375
1716557804100487400,4.1794873046875,1.426300048828125,4.372711181640625,-0.67999267578125
1716557804110619100,4.189619140625,1.7021942138671875,3.98388671875,-0.3209991455078125
1716557804120751000,4.199751220703125,1.83642578125,3.2573699951171875,0.153045654296875
1716557804130852400,4.209852294921875,1.9290924072265625,2.8259429931640625,0.3320159912109375
1716557804140984000,4.219984130859375,2.04095458984375,2.58306884765625,0.361846923828125
1716557804151116000,4.230115966796875,2.077178955078125,2.464813232421875,0.3437347412109375
1716557804161247700,4.240247802734375,1.9493408203125,2.4040985107421875,0.3661041259765625
1716557804171379700,4.250379638671875,1.798065185546875,2.455230712890625,0.34906005859375
1716557804181511400,4.260511474609375,1.5999298095703125,2.4712066650390625,0.3192291259765625
1716557804191643400,4.270643310546875,1.137603759765625,1.919403076171875,0.244659423828125
1716557804201775000,4.280775146484375,0.96929931640625,0.92657470703125,0.293670654296875
1716557804211907000,4.290906982421875,1.0257568359375,0.0988616943359375,0.2883453369140625
1716557804222038800,4.301038818359375,1.059844970703125,-0.50726318359375,0.324554443359375
1716557804232170800,4.311170654296875,1.151458740234375,-0.91845703125,0.268096923828125
1716557804242302500,4.321302490234375,1.30804443359375,-1.27532958984375,0.3341522216796875
1716557804252434400,4.331434326171875,1.423095703125,-1.7035675048828125,0.505645751953125
1716557804262566100,4.341566162109375,1.423095703125,-1.5746612548828125,0.5706329345703125
1716557804272698000,4.351697998046875,1.2025909423828125,-0.9727935791015625,0.4694366455078125
1716557804282829800,4.361829833984375,0.9320068359375,-0.5051422119140625,0.3309478759765625
1716557804292961800,4.3719619140625,0.7349395751953125,-0.2782440185546875,0.2957916259765625
1716557804303093500,4.382093505859375,0.4856719970703125,-0.1514739990234375,0.3202972412109375
1716557804313225500,4.3922255859375,0.1256103515625,-0.158935546875,0.3895416259765625
1716557804323357200,4.402357177734375,-0.16094970703125,-0.1642608642578125,0.4236297607421875
1716557804333489200,4.4124892578125,-0.3015594482421875,-0.1067352294921875,0.3980560302734375
1716557804343620900,4.422620849609375,-0.378265380859375,-0.06304931640625,0.336273193359375
1716557804353752600,4.432752685546875,-0.458160400390625,0.0530548095703125,0.2169647216796875
1716557804363884500,4.442884521484375,-0.573211669921875,0.206451416015625,0.0390625
1716557804374016300,4.453016357421875,-0.7021026611328125,0.5814361572265625,-0.178253173828125
1716557804384148200,4.463148193359375,-0.7926483154296875,1.095947265625,-0.4083404541015625
1716557804394280000,4.473280029296875,-0.756439208984375,1.4900970458984375,-0.6128692626953125
1716557804404412000,4.483411865234375,-0.5540313720703125,1.5263214111328125,-0.7598876953125
1716557804414543600,4.493543701171875,-0.35589599609375,1.087432861328125,-0.780120849609375
1716557804424675600,4.503675537109375,-0.456024169921875,0.53668212890625,-0.6256561279296875
1716557804434807300,4.513807373046875,-0.8533782958984375,0.028564453125,-0.67572021484375
1716557804444939300,4.523939208984375,-1.9101104736328125,-0.4465484619140625,-0.737518310546875
1716557804455071000,4.534071044921875,-3.2576751708984375,-0.2665252685546875,-1.0134124755859375
1716557804465203000,4.544202880859375,-3.63690185546875,0.55267333984375,-1.78466796875
1716557804475334700,4.554334716796875,-3.7487640380859375,-1.5576171875,-2.013702392578125
1716557804485466600,4.564466552734375,-3.13623046875,-3.039398193359375,-1.9284820556640625
1716557804495598300,4.574598388671875,-2.08587646484375,-4.1888275146484375,-1.5481719970703125
1716557804505730300,4.584730224609375,-1.5915985107421875,-3.8788299560546875,-1.13592529296875
1716557804515862000,4.594862060546875,-1.1005096435546875,-2.31396484375,-1.1636199951171875
1716557804525994000,4.604993896484375,-0.740447998046875,-0.4944915771484375,-1.6387176513671875
1716557804536125700,4.615125732421875,-0.9535064697265625,-0.030029296875,-2.069091796875
1716557804546257700,4.625257568359375,-1.334869384765625,0.12017822265625,-2.2001190185546875
1716557804556389400,4.635389404296875,-1.5031890869140625,0.0551910400390625,-2.18414306640625
1716557804566521300,4.645521240234375,-1.19744873046875,0.1819610595703125,-2.3577728271484375
1716557804576653000,4.655653076171875,-0.52313232421875,0.1787567138671875,-2.5079803466796875
1716557804586785000,4.665784912109375,-0.321807861328125,-0.009796142578125,-2.318359375
1716557804596916700,4.675916748046875,-0.4315338134765625,-0.692626953125,-2.057373046875
1716557804607048700,4.686048583984375,-0.5060882568359375,-1.7568206787109375,-1.908233642578125
1716557804617180400,4.696180419921875,-0.4762725830078125,-2.792266845703125,-1.7228851318359375
1716557804627312400,4.7063125,-0.36334228515625,-3.431427001953125,-1.6621551513671875
1716557804637444000,4.716444091796875,-0.1630859375,-3.6583251953125,-1.807037353515625
1716557804647576000,4.726576171875,0.103240966796875,-3.7904205322265625,-1.8666839599609375
1716557804657707800,4.736707763671875,0.3599700927734375,-4.0492706298828125,-1.8006439208984375
1716557804667839700,4.74683984375,0.615631103515625,-4.078033447265625,-1.6951904296875
1716557804677971500,4.756971435546875,0.820159912109375,-4.042877197265625,-1.5833282470703125
1716557804688103200,4.767103271484375,0.9735565185546875,-3.8085174560546875,-1.464019775390625
1716557804698235100,4.777235107421875,1.09393310546875,-3.214111328125,-1.4043731689453125
1716557804708366800,4.787366943359375,1.0992584228515625,-2.8881378173828125,-1.3585662841796875
1716557804718498800,4.797498779296875,1.115234375,-2.8050384521484375,-1.2275390625
1716557804728630500,4.807630615234375,1.1312103271484375,-2.7709503173828125,-1.0634765625
1716557804738762500,4.817762451171875,1.1237640380859375,-2.6228790283203125,-0.904754638671875
1716557804748894200,4.827894287109375,1.071563720703125,-2.4652252197265625,-0.69171142578125
1716557804759026200,4.838026123046875,0.9906005859375,-2.3427276611328125,-0.4445648193359375
1716557804769158000,4.848157958984375,0.91070556640625,-2.2937164306640625,-0.2293853759765625
1716557804779289900,4.858289794921875,0.7242889404296875,-2.18505859375,-0.0972900390625
1716557804789421600,4.868421630859375,0.5655670166015625,-2.092376708984375,0.016693115234375
1716557804799553500,4.878553466796875,0.3983154296875,-2.071075439453125,0.1285552978515625
1716557804809685200,4.888685302734375,0.2768707275390625,-1.9858551025390625,0.2957916259765625
1716557804819817200,4.898817138671875,0.168212890625,-1.85589599609375,0.519500732421875
1716557804829949000,4.908948974609375,-0.0224609375,-1.796234130859375,0.74853515625
1716557804840081000,4.919080810546875,-0.3697357177734375,-1.7941131591796875,0.94134521484375
1716557804850212600,4.929212646484375,-0.7500457763671875,-1.6982421875,1.1085968017578125
1716557804860344600,4.939344482421875,-1.1558990478515625,-1.4969024658203125,1.2470703125
1716557804870476300,4.949476318359375,-1.3742828369140625,-1.229522705078125,1.2992706298828125
1716557804880608300,4.959608154296875,-1.379608154296875,-0.863067626953125,1.3003387451171875
1716557804890740000,4.969739990234375,-1.2602996826171875,-0.4263153076171875,1.3173828125
1716557804900872000,4.979871826171875,-0.99505615234375,-0.066253662109375,1.2694549560546875
1716557804911003600,4.990003662109375,-0.1897125244140625,0.26397705078125,1.0478668212890625
1716557804921135600,5.000135498046875,0.82122802734375,0.549468994140625,0.5621185302734375
1716557804931236900,5.01023681640625,1.2984619140625,0.161712646484375,-0.1036834716796875
1716557804941368600,5.02036865234375,1.0747528076171875,-0.7118072509765625,-0.632049560546875
1716557804951500500,5.03050048828125,0.5719451904296875,-1.2667999267578125,-1.0208740234375
1716557804961632300,5.04063232421875,-0.037384033203125,-1.1176605224609375,-1.2232666015625
1716557804971764200,5.05076416015625,-0.5423126220703125,-0.726715087890625,-1.165740966796875
1716557804981896000,5.06089599609375,-0.7617645263671875,-0.53497314453125,-0.8983612060546875
1716557804992028000,5.07102783203125,-0.721282958984375,-0.7757110595703125,-0.6054229736328125
1716557805002159600,5.08115966796875,-0.424072265625,-1.192230224609375,-0.3305816650390625
1716557805012291600,5.09129150390625,0.0254669189453125,-1.6758575439453125,-0.1334991455078125
1716557805022423300,5.10142333984375,0.3631591796875,-2.040191650390625,-0.0227203369140625
1716557805032555300,5.11155517578125,0.5165557861328125,-2.061492919921875,0.084869384765625
1716557805042687000,5.12168701171875,0.51123046875,-1.5885162353515625,0.14453125
1716557805052819000,5.13181884765625,0.3599700927734375,-0.6532135009765625,0.0390625
1716557805062950700,5.14195068359375,0.2193450927734375,0.4770355224609375,-0.3433685302734375
1716557805073082600,5.15208251953125,-0.1534881591796875,1.7095489501953125,-0.6501617431640625
1716557805083214300,5.16221435546875,-0.81182861328125,2.9974517822265625,-0.1952972412109375
1716557805093346300,5.17234619140625,-1.43927001953125,2.786529541015625,0.6473388671875
1716557805103478000,5.18247802734375,-1.870697021484375,0.7518768310546875,0.59832763671875
1716557805113610000,5.19260986328125,-1.915435791015625,-1.7877197265625,-0.002471923828125
1716557805123741700,5.20274169921875,-1.652313232421875,-3.41650390625,-0.4232635498046875
1716557805133873700,5.212873779296875,-1.128204345703125,-3.624237060546875,-0.3699951171875
1716557805144005400,5.22300537109375,-0.28558349609375,-2.55364990234375,-0.1239166259765625
1716557805154137300,5.233137451171875,0.72747802734375,-0.7118072509765625,0.30218505859375
1716557805164269000,5.24326904296875,1.40179443359375,1.517791748046875,1.100067138671875
1716557805174401000,5.253401123046875,1.6329498291015625,3.3862762451171875,2.0992889404296875
1716557805184532700,5.26353271484375,1.882232666015625,4.3886871337890625,2.7352447509765625
1716557805194664400,5.27366455078125,2.293426513671875,4.55487060546875,2.8044891357421875
1716557805204796400,5.28379638671875,2.68756103515625,3.85711669921875,2.3826446533203125
1716557805214928100,5.29392822265625,2.8111419677734375,2.523406982421875,1.59222412109375
1716557805225060000,5.30406005859375,2.2412261962890625,1.4336395263671875,0.975433349609375
1716557805235191800,5.31419189453125,1.071563720703125,1.3292388916015625,1.1959381103515625
1716557805245323800,5.32432373046875,0.01055908203125,2.0078125,1.9192657470703125
1716557805255455500,5.33445556640625,-0.4283294677734375,2.5383148193359375,2.481719970703125
1716557805265587500,5.34458740234375,-0.420867919921875,2.763092041015625,2.5562896728515625
1716557805275719200,5.35471923828125,-0.283447265625,2.6778717041015625,2.27825927734375
1716557805285851100,5.36485107421875,-0.103424072265625,2.2922515869140625,1.9256439208984375
1716557805295982800,5.37498291015625,0.133056640625,1.6988983154296875,1.659332275390625
1716557805306114800,5.38511474609375,0.418548583984375,1.089569091796875,1.5123291015625
1716557805316246500,5.39524658203125,0.7093658447265625,0.6133880615234375,1.4601287841796875
1716557805326378500,5.40537841796875,0.9671630859375,0.3726348876953125,1.4888916015625
1716557805336510200,5.41551025390625,1.138671875,0.468505859375,1.5634613037109375
1716557805346642200,5.42564208984375,1.184478759765625,0.871185302734375,1.6635894775390625
1716557805356774000,5.43577392578125,1.1237640380859375,1.3430938720703125,1.7584075927734375
1716557805366905900,5.44590576171875,1.0214996337890625,1.6147308349609375,1.7733154296875
1716557805377037600,5.45603759765625,0.909637451171875,1.5518798828125,1.682769775390625
1716557805387169500,5.46616943359375,0.8116302490234375,1.202484130859375,1.5389556884765625
1716557805397301200,5.47630126953125,0.742401123046875,0.699676513671875,1.4228515625
1716557805407433200,5.48643310546875,0.69659423828125,0.161712646484375,1.4036712646484375
1716557805417565000,5.49656494140625,0.662506103515625,-0.2420196533203125,1.45587158203125
1716557805427697000,5.50669677734375,0.64013671875,-0.4273681640625,1.5421600341796875
1716557805437828600,5.51682861328125,0.6081695556640625,-0.416717529296875,1.613525390625
1716557805447960600,5.526960693359375,0.5772857666015625,-0.2057952880859375,1.6092681884765625
1716557805458092300,5.53709228515625,0.559173583984375,0.0914154052734375,1.546417236328125
1716557805468224300,5.547224365234375,0.5378570556640625,0.3630523681640625,1.4260406494140625
1716557805478356000,5.55735595703125,0.53680419921875,0.5324249267578125,1.2438812255859375
1716557805488488000,5.567488037109375,0.606048583984375,0.5579986572265625,1.0627899169921875
1716557805498619600,5.57761962890625,0.738128662109375,0.4972686767578125,0.9445343017578125
1716557805508751400,5.58775146484375,0.8617095947265625,0.4312286376953125,0.89874267578125
1716557805518883300,5.59788330078125,0.942657470703125,0.3651885986328125,0.9136505126953125
1716557805529015000,5.60801513671875,0.97674560546875,0.2266998291015625,0.9722442626953125
1716557805539147000,5.61814697265625,0.9554443359375,-0.007659912109375,1.0244293212890625
1716557805549278700,5.62827880859375,0.9043121337890625,-0.294219970703125,1.076629638671875
1716557805559410700,5.63841064453125,0.8244171142578125,-0.512603759765625,1.1458740234375
1716557805569542400,5.64854248046875,0.7029876708984375,-0.4859619140625,1.179962158203125
1716557805579674400,5.65867431640625,0.54638671875,-0.2089996337890625,1.0830230712890625
1716557805589806000,5.66880615234375,0.40045166015625,0.1105804443359375,0.860382080078125
1716557805599938000,5.67893798828125,0.29498291015625,0.3033905029296875,0.6473388671875
1716557805610069800,5.68906982421875,0.1884613037109375,0.436553955078125,0.5269622802734375
1716557805620201700,5.69920166015625,0.0595550537109375,0.563323974609375,0.486480712890625
1716557805630333400,5.70933349609375,-0.0618743896484375,0.617645263671875,0.460906982421875
1716557805640465400,5.71946533203125,-0.128997802734375,0.5910186767578125,0.3980560302734375
1716557805650597000,5.72959716796875,-0.136444091796875,0.5558624267578125,0.2979278564453125
1716557805660729000,5.73972900390625,-0.0778656005859375,0.573974609375,0.1381378173828125
1716557805670860800,5.74986083984375,0.03399658203125,0.676239013671875,-0.0972900390625
1716557805680992800,5.75999267578125,0.068084716796875,0.789154052734375,-0.3316497802734375
1716557805691124500,5.77012451171875,-0.1343231201171875,0.8552093505859375,-0.4680023193359375
1716557805701256400,5.78025634765625,-0.6200714111328125,0.9105987548828125,-0.497833251953125
1716557805711388200,5.79038818359375,-1.120758056640625,0.8637237548828125,-0.5148773193359375
1716557805721520000,5.80052001953125,-1.424346923828125,0.6240386962890625,-0.58837890625
1716557805731651800,5.81065185546875,-1.5468597412109375,0.2149810791015625,-0.8099517822265625
1716557805741783800,5.82078369140625,-1.5820159912109375,-0.259063720703125,-1.1977081298828125
1716557805751915500,5.83091552734375,-1.62249755859375,-0.657470703125,-1.713287353515625
1716557805762047500,5.841047607421875,-1.654449462890625,-0.8375091552734375,-2.192657470703125
1716557805772179200,5.85117919921875,-1.48187255859375,-0.900360107421875,-2.46856689453125
1716557805782311200,5.861311279296875,-1.0823974609375,-0.85455322265625,-2.602783203125
1716557805792412400,5.871412353515625,-0.64031982421875,-0.783172607421875,-2.684814453125
1716557805802544000,5.881544189453125,-0.2823944091796875,-0.82684326171875,-2.684814453125
1716557805812676000,5.891676025390625,-0.0640106201171875,-0.7906341552734375,-2.6198272705078125
1716557805822807800,5.901807861328125,0.05743408203125,-0.396484375,-2.5644378662109375
1716557805832939800,5.911939697265625,0.068084716796875,0.234161376953125,-2.5282135009765625
1716557805843071500,5.922071533203125,-0.09063720703125,0.8658599853515625,-2.477081298828125
1716557805853203500,5.932203369140625,-0.39105224609375,1.3750457763671875,-2.444061279296875
1716557805863335200,5.942335205078125,-0.68292236328125,1.6147308349609375,-2.4483184814453125
1716557805873467100,5.952467041015625,-0.8938446044921875,1.3782501220703125,-2.4419403076171875
1716557805883598800,5.962598876953125,-0.946044921875,0.9105987548828125,-2.3918609619140625
1716557805893730800,5.972730712890625,-0.9098358154296875,0.3609161376953125,-2.37481689453125
1716557805903862500,5.982862548828125,-0.8448486328125,-0.1738433837890625,-2.4302215576171875
1716557805913994500,5.992994384765625,-0.7947845458984375,-0.6052703857421875,-2.4408721923828125
1716557805924126200,6.003126220703125,-0.78839111328125,-0.83856201171875,-2.378021240234375
1716557805934258200,6.013258056640625,-0.77667236328125,-0.9280548095703125,-2.330078125
1716557805944390000,6.023389892578125,-0.7468414306640625,-1.1197967529296875,-2.3364715576171875
1716557805954521900,6.03352197265625,-0.7127532958984375,-1.47772216796875,-2.364166259765625
1716557805964653600,6.043653564453125,-0.67120361328125,-1.9965057373046875,-2.341796875
1716557805974785500,6.05378564453125,-0.6211395263671875,-2.4865264892578125,-2.284271240234375
1716557805984917200,6.063917236328125,-0.573211669921875,-2.6825408935546875,-2.2118377685546875
1716557805995049200,6.07404931640625,-0.502899169921875,-2.6026458740234375,-2.114898681640625
1716557806005181000,6.084180908203125,-0.4315338134765625,-2.427947998046875,-1.9742889404296875
1716557806015312600,6.094312744140625,-0.36761474609375,-2.233001708984375,-1.7772064208984375
1716557806025444600,6.104444580078125,-0.296234130859375,-1.979461669921875,-1.543914794921875
1716557806035576300,6.114576416015625,-0.241912841796875,-1.7259368896484375,-1.2850494384765625
1716557806045708300,6.124708251953125,-0.2408447265625,-1.537384033203125,-1.0272674560546875
1716557806055840000,6.134840087890625,-0.2760009765625,-1.3616180419921875,-0.7950286865234375
1716557806065972000,6.144971923828125,-0.321807861328125,-1.226318359375,-0.57666015625
1716557806076103700,6.155103759765625,-0.366546630859375,-1.124053955078125,-0.3423004150390625
1716557806086235600,6.165235595703125,-0.3803863525390625,-1.0292510986328125,-0.0674591064453125
1716557806096367400,6.175367431640625,-0.340972900390625,-0.945098876953125,0.2425384521484375
1716557806106499300,6.185499267578125,-0.2600250244140625,-0.876922607421875,0.566375732421875
1716557806116631000,6.195631103515625,-0.1513671875,-0.8097991943359375,0.8348236083984375
1716557806126763000,6.205762939453125,-0.049102783203125,-0.691558837890625,1.001007080078125
1716557806136894700,6.215894775390625,0.021209716796875,-0.508331298828125,1.0840911865234375
1716557806147026700,6.226026611328125,0.065948486328125,-0.329376220703125,1.1416168212890625
1716557806157158400,6.236158447265625,0.0968475341796875,-0.2100677490234375,1.19061279296875
1716557806167290400,6.246290283203125,0.1160125732421875,-0.08648681640625,1.203399658203125
1716557806177422000,6.256422119140625,0.124542236328125,0.0530548095703125,1.11285400390625
1716557806187554000,6.266553955078125,0.156494140625,-0.0236358642578125,0.8816986083984375
1716557806197685800,6.276685791015625,0.28326416015625,-0.384765625,0.5823516845703125
1716557806207817700,6.286817626953125,0.4824676513671875,-0.77252197265625,0.312835693359375
1716557806217949400,6.296949462890625,0.5421295166015625,-0.96533203125,0.0667572021484375
1716557806228081400,6.307081298828125,0.3280029296875,-0.8705291748046875,-0.25494384765625
1716557806238213000,6.317213134765625,-0.117279052734375,-0.6979522705078125,-0.5958251953125
1716557806248345000,6.327344970703125,-0.538055419921875,-0.67877197265625,-0.8088836669921875
1716557806258476800,6.337476806640625,-0.75537109375,-0.8012847900390625,-0.883453369140625
1716557806268608800,6.34760888671875,-0.787322998046875,-1.048431396484375,-0.836578369140625
1716557806278740500,6.357740478515625,-0.6893157958984375,-1.3850555419921875,-0.74603271484375
1716557806288872400,6.36787255859375,-0.547637939453125,-1.7823944091796875,-0.6831817626953125
1716557806299004200,6.378004150390625,-0.4624176025390625,-2.0891876220703125,-0.60968017578125
1716557806309136100,6.38813623046875,-0.4261932373046875,-1.5395050048828125,-0.4637451171875
1716557806319267800,6.398267822265625,-0.4198150634765625,-0.101409912109375,-0.458404541015625
1716557806329399600,6.408399658203125,-0.596649169921875,1.3612060546875,-0.8312530517578125
1716557806339531500,6.418531494140625,-1.1484527587890625,2.250701904296875,-1.074127197265625
1716557806349663200,6.428663330078125,-1.823822021484375,2.7439117431640625,-0.4403076171875
1716557806359795200,6.438795166015625,-2.1945343017578125,2.478668212890625,0.6036529541015625
1716557806369927000,6.448927001953125,-2.0592498779296875,1.15240478515625,0.9381561279296875
1716557806380059000,6.459058837890625,-1.4445953369140625,-0.8130035400390625,0.48541259765625
1716557806390190600,6.469190673828125,-0.6136932373046875,-2.5461883544921875,-0.16546630859375
1716557806400322600,6.479322509765625,0.2577056884765625,-3.0244903564453125,-0.462677001953125
1716557806410454300,6.489454345703125,1.0651702880859375,-1.9187469482421875,-0.3646697998046875
1716557806420586200,6.499586181640625,1.5786285400390625,-0.2196502685546875,0.0390625
1716557806430718000,6.509718017578125,1.7139129638671875,1.5401611328125,0.985015869140625
1716557806440850000,6.519849853515625,1.6595916748046875,2.8504486083984375,2.150421142578125
1716557806450981600,6.529981689453125,1.7831573486328125,3.0400543212890625,2.77679443359375
1716557806461113600,6.540113525390625,1.856658935546875,2.1846466064453125,2.809814453125
1716557806471245300,6.550245361328125,1.5456085205078125,0.8967437744140625,2.3283233642578125
1716557806481377300,6.560377197265625,0.8734283447265625,-0.044952392578125,1.567718505859375
1716557806491509000,6.570509033203125,0.0755462646484375,-0.2089996337890625,1.2886199951171875
1716557806501641000,6.580640869140625,-0.3729400634765625,0.1531982421875,1.5964813232421875
1716557806511772700,6.590772705078125,-0.3931732177734375,0.514312744140625,2.0534820556640625
1716557806521904600,6.600904541015625,-0.306884765625,0.742279052734375,2.3059539794921875
1716557806532036400,6.611036376953125,-0.19610595703125,0.7742462158203125,2.310211181640625
1716557806542168300,6.621168212890625,-0.0054168701171875,0.6038055419921875,2.138702392578125
1716557806552300000,6.631300048828125,0.2204132080078125,0.3204345703125,1.912872314453125
1716557806562432000,6.641431884765625,0.4569091796875,0.0317535400390625,1.7328338623046875
1716557806572563700,6.651563720703125,0.6880645751953125,-0.1940765380859375,1.6667938232421875
1716557806582695700,6.66169580078125,0.890472412109375,-0.2750396728515625,1.6880950927734375
1716557806592827400,6.671827392578125,1.036407470703125,-0.14508056640625,1.739227294921875
1716557806602959400,6.68195947265625,1.0641021728515625,0.16278076171875,1.81805419921875
1716557806613091000,6.692091064453125,0.99273681640625,0.5697174072265625,1.9171295166015625
1716557806623223000,6.70222314453125,0.8840789794921875,0.9553375244140625,1.976776123046875
1716557806633354800,6.712354736328125,0.8009796142578125,1.1960906982421875,1.95654296875
1716557806643486500,6.722486572265625,0.7786102294921875,1.20355224609375,1.854278564453125
1716557806653618400,6.732618408203125,0.782867431640625,0.9638671875,1.70513916015625
1716557806663750100,6.742750244140625,0.77435302734375,0.562255859375,1.58050537109375
1716557806673882000,6.752882080078125,0.7413330078125,0.2011260986328125,1.5293731689453125
1716557806684013800,6.763013916015625,0.69659423828125,0.027496337890625,1.548553466796875
1716557806694115300,6.773115234375,0.646514892578125,0.028564453125,1.6060638427734375
1716557806704247000,6.7832470703125,0.5751495361328125,0.072235107421875,1.6561431884765625
1716557806714379000,6.79337890625,0.4931182861328125,0.0882110595703125,1.6540069580078125
1716557806724510700,6.8035107421875,0.4164276123046875,0.11590576171875,1.6092681884765625
1716557806734642700,6.813642578125,0.373809814453125,0.19793701171875,1.5378875732421875
1716557806744774400,6.8237744140625,0.3812713623046875,0.3076629638671875,1.4516143798828125
1716557806754906400,6.83390625,0.4334716796875,0.4088592529296875,1.3482818603515625
1716557806765038000,6.8440380859375,0.510162353515625,0.44720458984375,1.24920654296875
1716557806775170000,6.854170166015625,0.5858001708984375,0.3534698486328125,1.16717529296875
1716557806785301800,6.8643017578125,0.6529083251953125,0.12762451171875,1.1277618408203125
1716557806795433700,6.874433837890625,0.7008514404296875,-0.1035308837890625,1.1522674560546875
1716557806805565400,6.8845654296875,0.7210845947265625,-0.237762451171875,1.2204437255859375
1716557806815697400,6.894697509765625,0.6997833251953125,-0.2633209228515625,1.2577362060546875
1716557806825829000,6.9048291015625,0.6518402099609375,-0.245208740234375,1.19061279296875
1716557806835960800,6.9149609375,0.5868682861328125,-0.233489990234375,1.02337646484375
1716557806846092800,6.9250927734375,0.512298583984375,-0.1855621337890625,0.82843017578125
1716557806856224500,6.935224609375,0.4142913818359375,-0.066253662109375,0.6505279541015625
1716557806866356500,6.9453564453125,0.3024444580078125,0.1105804443359375,0.4800872802734375
1716557806876488200,6.95548828125,0.19378662109375,0.2927398681640625,0.30218505859375
1716557806886620200,6.9656201171875,0.0744781494140625,0.4056549072265625,0.1732940673828125
1716557806896751900,6.975751953125,-0.0522918701171875,0.42376708984375,0.1242828369140625
1716557806906883800,6.9858837890625,-0.1534881591796875,0.358795166015625,0.110443115234375
1716557806917015600,6.996015625,-0.239776611328125,0.276763916015625,0.0710296630859375
1716557806927147500,7.0061474609375,-0.30902099609375,0.2277679443359375,-0.00567626953125
1716557806937279200,7.016279296875,-0.368682861328125,0.17236328125,-0.1154022216796875
1716557806947411200,7.0264111328125,-0.45709228515625,0.12017822265625,-0.2411041259765625
1716557806957543000,7.03654296875,-0.5998382568359375,0.1244354248046875,-0.3614654541015625
1716557806967675000,7.0466748046875,-0.789459228515625,0.18621826171875,-0.4552154541015625
1716557806977806600,7.056806640625,-0.9886627197265625,0.2458648681640625,-0.4797210693359375
1716557806987938600,7.0669384765625,-1.1931915283203125,0.2586517333984375,-0.470123291015625
1716557806998070300,7.0770703125,-1.38067626953125,0.1798248291015625,-0.5106048583984375
1716557807008202200,7.0872021484375,-1.562835693359375,0.0519866943359375,-0.606475830078125
1716557807018334000,7.097333984375,-1.7535247802734375,-0.0950164794921875,-0.8919677734375
1716557807028466000,7.1074658203125,-1.755645751953125,-0.19195556640625,-1.476806640625
1716557807038597600,7.11759765625,-1.5575103759765625,-0.14508056640625,-2.237396240234375
1716557807048729600,7.1277294921875,-1.27734375,0.0658416748046875,-2.8030548095703125
1716557807058861300,7.137861328125,-0.9886627197265625,0.4866180419921875,-3.026763916015625
1716557807068993300,7.1479931640625,-0.70849609375,0.871185302734375,-3.0640411376953125
1716557807079125000,7.158125,-0.4837188720703125,0.8466796875,-3.0821533203125
1716557807089257000,7.168257080078125,-0.3260650634765625,0.4408111572265625,-3.0917510986328125
1716557807099388700,7.178388671875,-0.24298095703125,0.1212310791015625,-3.040618896484375
1716557807109520600,7.188520751953125,-0.2440338134765625,0.050933837890625,-2.923431396484375
1716557807119652400,7.19865234375,-0.2898406982421875,0.2245635986328125,-2.7796173095703125
1716557807129784300,7.208784423828125,-0.3132781982421875,0.7838287353515625,-2.6336822509765625
1716557807139916000,7.218916015625,-0.37933349609375,1.350555419921875,-2.4408721923828125
1716557807150047700,7.2290478515625,-0.4624176025390625,1.6296539306640625,-2.283203125
1716557807160179700,7.2391796875,-0.5188751220703125,1.54229736328125,-2.2448577880859375
1716557807170311400,7.2493115234375,-0.5838623046875,1.0789031982421875,-2.3162384033203125
1716557807180443400,7.259443359375,-0.5987701416015625,0.37689208984375,-2.4376678466796875
1716557807190575000,7.2695751953125,-0.650970458984375,-0.3453521728515625,-2.5079803466796875
1716557807200707000,7.27970703125,-0.6935882568359375,-0.7469482421875,-2.54632568359375
1716557807210838800,7.2898388671875,-0.6925201416015625,-0.8939666748046875,-2.51544189453125
1716557807220970800,7.299970703125,-0.6701507568359375,-1.01434326171875,-2.4185028076171875
1716557807231102500,7.3101025390625,-0.6541595458984375,-1.2465667724609375,-2.3247528076171875
1716557807241234400,7.320234375,-0.6573638916015625,-1.5288543701171875,-2.2256927490234375
1716557807251366100,7.3303662109375,-0.6903839111328125,-1.8260650634765625,-2.1308746337890625
1716557807261498000,7.340498046875,-0.7266082763671875,-2.0316619873046875,-2.022216796875
1716557807271629800,7.3506298828125,-0.7606964111328125,-2.1658935546875,-1.8666839599609375
1716557807281761800,7.36076171875,-0.80010986328125,-2.2606964111328125,-1.6525726318359375
1716557807291893500,7.3708935546875,-0.8331298828125,-2.322479248046875,-1.3873291015625
1716557807302025500,7.381025390625,-0.845916748046875,-2.3160858154296875,-1.099700927734375
1716557807312157200,7.3911572265625,-0.8373870849609375,-2.2010345458984375,-0.803558349609375
1716557807322289200,7.4012890625,-0.81182861328125,-1.9975738525390625,-0.495697021484375
1716557807332420900,7.4114208984375,-0.7798614501953125,-1.7600250244140625,-0.197418212890625
1716557807342552800,7.421552734375,-0.733001708984375,-1.5395050048828125,0.0901947021484375
1716557807352684500,7.4316845703125,-0.6467132568359375,-1.34136962890625,0.3565216064453125
1716557807362816500,7.44181640625,-0.5295257568359375,-1.1986236572265625,0.6057891845703125
1716557807372948200,7.4519482421875,-0.4166107177734375,-1.137908935546875,0.860382080078125
1716557807383080200,7.462080078125,-0.3154144287109375,-1.100616455078125,1.126708984375
1716557807393212000,7.4722119140625,-0.23126220703125,-1.0388336181640625,1.36639404296875
1716557807403344000,7.48234375,-0.1513671875,-0.96746826171875,1.5272369384765625
1716557807413475600,7.4924755859375,-0.0533599853515625,-0.886505126953125,1.5655975341796875
1716557807423607600,7.502607666015625,0.0595550537109375,-0.669189453125,1.4537353515625
1716557807433739300,7.5127392578125,0.1373291015625,-0.350677490234375,1.2087249755859375
1716557807443871200,7.522871337890625,0.1490478515625,-0.1152496337890625,0.8561248779296875
1716557807454003000,7.5330029296875,0.1192169189453125,-0.0950164794921875,0.373565673828125
1716557807464134700,7.543134765625,0.1298675537109375,-0.349609375,-0.0930328369140625
1716557807474266600,7.5532666015625,0.1543731689453125,-0.76080322265625,-0.35614013671875
1716557807484398300,7.5633984375,0.068084716796875,-0.9365692138671875,-0.458404541015625
1716557807494530300,7.5735302734375,-0.1449737548828125,-0.7863616943359375,-0.52020263671875
1716557807504662000,7.583662109375,-0.3462982177734375,-0.4689178466796875,-0.60968017578125
1716557807514794000,7.5937939453125,-0.4187469482421875,-0.06732177734375,-0.688507080078125
1716557807524925700,7.60392578125,-0.353759765625,0.0551910400390625,-0.7044830322265625
1716557807535057700,7.6140576171875,-0.18438720703125,-0.279296875,-0.7076873779296875
1716557807545189400,7.624189453125,0.01055908203125,-0.7906341552734375,-0.75775146484375
1716557807555321300,7.6343212890625,0.202301025390625,-1.100616455078125,-0.861083984375
1716557807565453000,7.644453125,0.3695526123046875,-1.0388336181640625,-1.158294677734375
1716557807575585000,7.6545849609375,0.3897857666015625,-0.157867431640625,-1.5247344970703125
1716557807585716700,7.664716796875,0.1415863037109375,1.5731964111328125,-1.3681488037109375
1716557807595848700,7.6748486328125,-0.2035675048828125,2.9143524169921875,-0.57452392578125
1716557807605980400,7.68498046875,-0.4602813720703125,2.7140960693359375,-0.0035400390625
1716557807616112400,7.6951123046875,-0.70635986328125,1.7042236328125,0.042266845703125
1716557807626244000,7.705244140625,-1.0461883544921875,0.7646484375,-0.0887603759765625
1716557807636376000,7.7153759765625,-1.276275634765625,-0.6074066162109375,-0.1920928955078125
1716557807646507800,7.7255078125,-1.1686859130859375,-1.48944091796875,0.1019134521484375
1716557807656609000,7.735609130859375,-0.6797332763671875,-1.00048828125,0.7964630126953125
1716557807666741000,7.745740966796875,-0.0160675048828125,-0.112060546875,1.3791656494140625
1716557807676872700,7.755872802734375,0.61669921875,0.5441436767578125,1.6976776123046875
1716557807687004700,7.766004638671875,1.17596435546875,1.1811676025390625,2.0279083251953125
1716557807697136400,7.776136474609375,1.6595916748046875,1.4453582763671875,2.2803802490234375
1716557807707268400,7.786268310546875,1.969573974609375,1.0608062744140625,2.29742431640625
1716557807717400000,7.796400146484375,1.915252685546875,0.309783935546875,2.0790557861328125
1716557807727532000,7.806531982421875,1.457183837890625,-0.259063720703125,1.7594757080078125
1716557807737663700,7.816663818359375,0.772216796875,-0.2867584228515625,1.554931640625
1716557807747795700,7.826795654296875,0.192718505859375,-0.1397552490234375,1.5592041015625
1716557807757927400,7.836927490234375,-0.02459716796875,-0.0012664794921875,1.692352294921875
1716557807768059400,7.847059326171875,-0.082122802734375,0.0711669921875,1.8574676513671875
1716557807778191000,7.857191162109375,-0.1396484375,-0.0001983642578125,2.049224853515625
1716557807788323000,7.867322998046875,-0.1119537353515625,-0.1163177490234375,2.2015533447265625
1716557807798454800,7.877454833984375,-0.0501556396484375,-0.031097412109375,2.2260589599609375
1716557807808586800,7.887586669921875,0.009490966796875,0.27783203125,2.1195220947265625
1716557807818718500,7.897718505859375,0.103240966796875,0.4109954833984375,2.0055389404296875
1716557807828850400,7.907850341796875,0.260894775390625,0.1926116943359375,2.0311126708984375
1716557807838982100,7.917982177734375,0.44305419921875,0.0647735595703125,2.12591552734375
1716557807849114000,7.928114013671875,0.6550445556640625,0.262908935546875,2.2154083251953125
1716557807859245800,7.938245849609375,0.862762451171875,0.7454833984375,2.229248046875
1716557807869377800,7.948377685546875,1.02789306640625,1.235504150390625,2.1578826904296875
1716557807879509500,7.958509521484375,1.1535797119140625,1.47412109375,2.0076751708984375
1716557807889641500,7.968641357421875,1.2132415771484375,1.449615478515625,1.819122314453125
1716557807899773200,7.978773193359375,1.1535797119140625,1.247222900390625,1.6678619384765625
1716557807909905200,7.9889052734375,0.9735565185546875,1.0128631591796875,1.5943603515625
1716557807920036900,7.999036865234375,0.7711639404296875,0.849884033203125,1.525115966796875
1716557807930168800,8.0091689453125,0.6411895751953125,0.7263031005859375,1.42071533203125
1716557807940300500,8.019300537109375,0.592193603515625,0.5665130615234375,1.3227081298828125
1716557807950432500,8.0294326171875,0.5858001708984375,0.34600830078125,1.2705078125
1716557807960564200,8.039564208984375,0.5612945556640625,0.11590576171875,1.2662506103515625
1716557807970696000,8.049696044921875,0.490997314453125,-0.019378662109375,1.2939453125
1716557807980828000,8.059827880859375,0.3834075927734375,-0.006591796875,1.351470947265625
1716557807990959600,8.069959716796875,0.2694244384765625,0.1297607421875,1.4366912841796875
1716557808001091600,8.080091552734375,0.19378662109375,0.333221435546875,1.509124755859375
1716557808011223300,8.090223388671875,0.1873931884765625,0.5239105224609375,1.5155181884765625
1716557808021355300,8.100355224609375,0.249176025390625,0.6368255615234375,1.4505462646484375
1716557808031487000,8.110487060546875,0.36529541015625,0.620849609375,1.3706512451171875
1716557808041619000,8.120618896484375,0.5069732666015625,0.434417724609375,1.351470947265625
1716557808051750700,8.130750732421875,0.6230926513671875,0.1457366943359375,1.429229736328125
1716557808061882600,8.140882568359375,0.6912689208984375,-0.053466796875,1.5410919189453125
1716557808072014300,8.151014404296875,0.7093658447265625,-0.019378662109375,1.5613250732421875
1716557808082146300,8.161146240234375,0.6944580078125,0.2394866943359375,1.4068603515625
1716557808092278000,8.171278076171875,0.6667633056640625,0.5537261962890625,1.1384124755859375
1716557808102410000,8.181409912109375,0.6475830078125,0.6826324462890625,0.92962646484375
1716557808112541700,8.191541748046875,0.6358642578125,0.5899505615234375,0.86358642578125
1716557808122673700,8.201673583984375,0.6411895751953125,0.514312744140625,0.7985992431640625
1716557808132805400,8.211805419921875,0.6752777099609375,0.6165771484375,0.620697021484375
1716557808142937300,8.221937255859375,0.6550445556640625,0.7412261962890625,0.406585693359375
1716557808153069000,8.232069091796875,0.500579833984375,0.656005859375,0.2883453369140625
1716557808163201000,8.242200927734375,0.2332000732421875,0.3193817138671875,0.2947235107421875
1716557808173332700,8.252332763671875,-0.0544281005859375,0.027496337890625,0.3767547607421875
1716557808183464700,8.262464599609375,-0.33245849609375,-0.018310546875,0.4342803955078125
1716557808193596400,8.272596435546875,-0.5178070068359375,0.0786285400390625,0.3799591064453125
1716557808203728400,8.282728271484375,-0.5902557373046875,0.17449951171875,0.2191009521484375
1716557808213860000,8.292860107421875,-0.6573638916015625,0.2480010986328125,0.018829345703125
1716557808223992000,8.302991943359375,-0.8267364501953125,0.2725067138671875,-0.164398193359375
1716557808234123800,8.313123779296875,-1.0792083740234375,0.3737030029296875,-0.292236328125
1716557808244255700,8.323255859375,-1.3188934326171875,0.59527587890625,-0.4317779541015625
1716557808254387500,8.333387451171875,-1.5074462890625,0.8392181396484375,-0.6842498779296875
1716557808264519400,8.34351953125,-1.6576385498046875,0.939361572265625,-0.9931793212890625
1716557808274651100,8.353651123046875,-1.77801513671875,0.91485595703125,-1.294647216796875
1716557808284783000,8.363783203125,-1.9090423583984375,0.857330322265625,-1.65576171875
1716557808294914800,8.373914794921875,-2.0272979736328125,0.73590087890625,-2.0839996337890625
1716557808305046500,8.384046630859375,-2.0294189453125,0.68475341796875,-2.53887939453125
1716557808315178500,8.394178466796875,-1.8078460693359375,0.789154052734375,-2.9415435791015625
1716557808325310200,8.404310302734375,-1.3902587890625,0.9457550048828125,-3.1577911376953125
1716557808335442200,8.414442138671875,-0.9439239501953125,1.061859130859375,-3.120513916015625
1716557808345574000,8.424573974609375,-0.6222076416015625,1.247222900390625,-2.946868896484375
1716557808355705900,8.434705810546875,-0.4187469482421875,1.738311767578125,-2.7913360595703125
1716557808365837600,8.444837646484375,-0.3175506591796875,2.225128173828125,-2.6475372314453125
1716557808375969500,8.454969482421875,-0.3282012939453125,2.3263397216796875,-2.5367431640625
1716557808386101200,8.465101318359375,-0.41021728515625,2.25177001953125,-2.457916259765625
1716557808396233200,8.475233154296875,-0.5742645263671875,2.0078125,-2.400390625
1716557808406365000,8.485364990234375,-0.7266082763671875,1.6413726806640625,-2.467498779296875
1716557808416497000,8.495496826171875,-0.820343017578125,1.1289825439453125,-2.6549835205078125
1716557808426628600,8.505628662109375,-0.8491058349609375,0.526031494140625,-2.8414154052734375
1716557808436760600,8.515760498046875,-0.8182220458984375,-0.053466796875,-2.93408203125
1716557808446892300,8.525892333984375,-0.763885498046875,-0.5328369140625,-2.92236328125
1716557808457024300,8.536024169921875,-0.686126708984375,-0.773590087890625,-2.9053192138671875
1716557808467156000,8.546156005859375,-0.62646484375,-0.8694610595703125,-2.8403472900390625
1716557808477288000,8.556287841796875,-0.57000732421875,-0.886505126953125,-2.70611572265625
1716557808487419600,8.566419677734375,-0.5114288330078125,-0.8918304443359375,-2.545257568359375
1716557808497551600,8.576551513671875,-0.4965057373046875,-1.024993896484375,-2.388671875
1716557808507683300,8.586683349609375,-0.5114288330078125,-1.3232574462890625,-2.25018310546875
1716557808517815300,8.596815185546875,-0.5337982177734375,-1.6939697265625,-2.1351318359375
1716557808527947000,8.606947021484375,-0.557220458984375,-2.0636138916015625,-2.0413970947265625
1716557808538079000,8.617078857421875,-0.573211669921875,-2.3970489501953125,-1.9444580078125
1716557808548210700,8.627210693359375,-0.5774688720703125,-2.6463165283203125,-1.7995758056640625
1716557808558342700,8.6373427734375,-0.5796051025390625,-2.7411346435546875,-1.567352294921875
1716557808568474400,8.647474365234375,-0.5785369873046875,-2.6729583740234375,-1.2669525146484375
1716557808578606300,8.6576064453125,-0.5540313720703125,-2.4790802001953125,-0.942047119140625
1716557808588738000,8.667738037109375,-0.5114288330078125,-2.16162109375,-0.62353515625
1716557808598870000,8.6778701171875,-0.456024169921875,-1.77813720703125,-0.32525634765625
1716557808609001700,8.688001708984375,-0.399566650390625,-1.4510955810546875,-0.0333709716796875
1716557808619133400,8.698133544921875,-0.3345947265625,-1.227386474609375,0.2531890869140625
1716557808629265400,8.708265380859375,-0.2781219482421875,-1.0281829833984375,0.5365447998046875
1716557808639397000,8.718397216796875,-0.2355194091796875,-0.85028076171875,0.784759521484375
1716557808649529000,8.728529052734375,-0.216339111328125,-0.7192535400390625,0.9807586669921875
1716557808659660800,8.738660888671875,-0.1982269287109375,-0.5392303466796875,1.1096649169921875
1716557808669762300,8.74876220703125,-0.1545562744140625,-0.384765625,1.1458740234375
1716557808679894000,8.75889404296875,-0.070404052734375,-0.2718505859375,1.1043243408203125
1716557808690026000,8.76902587890625,0.0414581298828125,-0.0928802490234375,1.0297698974609375
1716557808700157700,8.77915771484375,0.1756744384765625,0.1233673095703125,0.905120849609375
1716557808710289700,8.78928955078125,0.342926025390625,0.1766357421875,0.6974029541015625
1716557808720421400,8.79942138671875,0.5431976318359375,-0.0609283447265625,0.397003173828125
1716557808730553300,8.80955322265625,0.79779052734375,-0.4220428466796875,-0.0237884521484375
1716557808740685000,8.81968505859375,1.0395965576171875,-0.646820068359375,-0.53936767578125
1716557808750817000,8.829817138671874,1.118438720703125,-0.5488128662109375,-0.9814605712890625
1716557808760948700,8.83994873046875,0.862762451171875,-0.292083740234375,-1.134857177734375
1716557808771080700,8.850080810546874,0.3482513427734375,-0.167449951171875,-0.92926025390625
1716557808781212400,8.86021240234375,-0.1204681396484375,-0.35919189453125,-0.6054229736328125
1716557808791344400,8.870344482421874,-0.3026275634765625,-0.7671966552734375,-0.3987579345703125
1716557808801476000,8.88047607421875,-0.1822509765625,-1.13897705078125,-0.3082122802734375
1716557808811607800,8.89060791015625,0.0616912841796875,-1.4265899658203125,-0.2837066650390625
1716557808821739800,8.90073974609375,0.2566375732421875,-1.6417694091796875,-0.265594482421875
1716557808831871500,8.91087158203125,0.3461151123046875,-1.5032958984375,-0.2975616455078125
1716557808842003500,8.92100341796875,0.274749755859375,-0.8992919921875,-0.4562835693359375
1716557808852135200,8.93113525390625,0.0382537841796875,0.0125732421875,-0.7204742431640625
1716557808862267100,8.94126708984375,-0.2461700439453125,1.0128631591796875,-1.010223388671875
1716557808872398800,8.95139892578125,-0.71807861328125,2.0259246826171875,-0.8408355712890625
1716557808882530800,8.96153076171875,-1.19744873046875,3.33087158203125,0.22442626953125
1716557808892662500,8.97166259765625,-1.405181884765625,3.125274658203125,1.215118408203125
1716557808902794500,8.98179443359375,-1.3987884521484375,1.153472900390625,0.9200439453125
1716557808912926200,8.99192626953125,-1.0451202392578125,-1.1453704833984375,-0.1601409912109375
1716557808923058200,9.00205810546875,-0.3814544677734375,-2.9584503173828125,-1.113555908203125
1716557808933190000,9.01218994140625,0.2534332275390625,-3.1288909912109375,-1.2041015625
1716557808943321900,9.02232177734375,0.7445220947265625,-1.378662109375,-0.4637451171875
1716557808953453600,9.03245361328125,0.93414306640625,0.9883575439453125,0.7879486083984375
1716557808963585500,9.04258544921875,0.95758056640625,2.955902099609375,2.1770477294921875
1716557808973717200,9.05271728515625,1.1248321533203125,3.935943603515625,3.3318023681640625
1716557808983849200,9.06284912109375,1.552001953125,3.87841796875,3.908111572265625
1716557808993981000,9.07298095703125,2.084625244140625,3.20623779296875,3.837799072265625
1716557809004113000,9.08311279296875,2.4595947265625,2.0184783935546875,3.1347198486328125
1716557809014244600,9.09324462890625,2.40313720703125,0.7177886962890625,2.220733642578125
1716557809024376600,9.10337646484375,1.7607879638671875,-0.1259002685546875,1.717926025390625
1716557809034508300,9.11350830078125,0.693389892578125,-0.3229827880859375,1.786102294921875
1716557809044640300,9.12364013671875,-0.2472381591796875,0.025360107421875,2.205810546875
1716557809054772000,9.13377197265625,-0.5657501220703125,0.422698974609375,2.607421875
1716557809064904000,9.143904052734374,-0.4901123046875,0.656005859375,2.7150115966796875
1716557809075035600,9.15403564453125,-0.25042724609375,0.7497406005859375,2.571197509765625
1716557809085167600,9.164167724609374,0.0787353515625,0.549468994140625,2.3283233642578125
1716557809095299300,9.17429931640625,0.444122314453125,0.1595916748046875,2.1099395751953125
1716557809105431300,9.184431396484374,0.7807464599609375,-0.1844940185546875,1.9874420166015625
1716557809115563000,9.19456298828125,1.036407470703125,-0.25799560546875,1.9032745361328125
1716557809125694700,9.20469482421875,1.173828125,-0.007659912109375,1.8276519775390625
1716557809135826700,9.21482666015625,1.2004547119140625,0.457855224609375,1.774383544921875
1716557809145958400,9.22495849609375,1.1578521728515625,0.948944091796875,1.730712890625
1716557809156090400,9.23509033203125,1.1237640380859375,1.33563232421875,1.6401519775390625
1716557809166222000,9.24522216796875,1.130157470703125,1.4922332763671875,1.4420166015625
1716557809176354000,9.25535400390625,1.1248321533203125,1.3100738525390625,1.12457275390625
1716557809186485800,9.26548583984375,1.0854034423828125,0.9169921875,0.8103179931640625
1716557809196617700,9.27561767578125,0.991668701171875,0.5111236572265625,0.6164398193359375
1716557809206749400,9.28574951171875,0.8361358642578125,0.21923828125,0.6068572998046875
1716557809216881400,9.29588134765625,0.6529083251953125,0.0360107421875,0.8018035888671875
1716557809227013000,9.30601318359375,0.486724853515625,-0.165313720703125,1.1043243408203125
1716557809237145000,9.31614501953125,0.3556976318359375,-0.4348297119140625,1.400482177734375
1716557809247276800,9.32627685546875,0.2758026123046875,-0.6862335205078125,1.6561431884765625
1716557809257408800,9.33640869140625,0.2449188232421875,-0.771453857421875,1.8436279296875
1716557809267540500,9.34654052734375,0.249176025390625,-0.6201934814453125,1.936309814453125
1716557809277672400,9.35667236328125,0.2779388427734375,-0.3432159423828125,1.9394989013671875
1716557809287804200,9.36680419921875,0.35357666015625,-0.1663818359375,1.8936920166015625
1716557809297936100,9.37693603515625,0.488861083984375,-0.1269683837890625,1.819122314453125
1716557809308067800,9.38706787109375,0.6539764404296875,-0.0726470947265625,1.7317657470703125
1716557809318199800,9.39719970703125,0.772216796875,0.1457366943359375,1.578369140625
1716557809328331500,9.40733154296875,0.865966796875,0.393951416015625,1.3035430908203125
1716557809338463500,9.41746337890625,0.9724884033203125,0.401397705078125,0.9903411865234375
1716557809348595200,9.42759521484375,1.0300140380859375,0.265045166015625,0.7645111083984375
1716557809358727200,9.43772705078125,0.9714202880859375,0.321502685546875,0.667572021484375
1716557809368859000,9.44785888671875,0.84039306640625,0.619781494140625,0.6388092041015625
1716557809378990800,9.457990966796874,0.6869964599609375,0.918060302734375,0.5802154541015625
1716557809389122600,9.46812255859375,0.5399932861328125,0.9926300048828125,0.464111328125
1716557809399254500,9.478254638671874,0.37701416015625,0.7742462158203125,0.317108154296875
1716557809409386200,9.48838623046875,0.19378662109375,0.56439208984375,0.11895751953125
1716557809419518200,9.498518310546874,-0.0395050048828125,0.6240386962890625,-0.1356353759765625
1716557809429650000,9.50864990234375,-0.3345947265625,0.769989013671875,-0.4126129150390625
1716557809439781600,9.51878173828125,-0.6658782958984375,0.7273712158203125,-0.6831817626953125
1716557809449913600,9.52891357421875,-1.062164306640625,0.538818359375,-0.963348388671875
1716557809460045300,9.53904541015625,-1.473358154296875,0.2586517333984375,-1.2104949951171875
1716557809470177300,9.54917724609375,-1.91864013671875,-0.1738433837890625,-1.4107513427734375
1716557809480309000,9.55930908203125,-2.3191680908203125,-0.48809814453125,-1.6163482666015625
1716557809490441000,9.56944091796875,-2.5631256103515625,-0.4934234619140625,-1.8507080078125
1716557809500572700,9.57957275390625,-2.6376953125,-0.5722503662109375,-2.2256927490234375
1716557809510704600,9.58970458984375,-2.39373779296875,-1.0665283203125,-2.5718994140625
1716557809520836400,9.59983642578125,-1.7876129150390625,-1.5874481201171875,-2.707183837890625
1716557809530968300,9.60996826171875,-1.01422119140625,-1.7152862548828125,-2.6656341552734375
1716557809541100000,9.62010009765625,-0.3590850830078125,-1.396759033203125,-2.5665740966796875
1716557809551232000,9.63023193359375,-0.000091552734375,-0.7299041748046875,-2.4951934814453125
1716557809561363700,9.64036376953125,0.0041656494140625,0.015777587890625,-2.490936279296875
1716557809571495700,9.65049560546875,-0.318603515625,0.575042724609375,-2.4493865966796875
1716557809581627400,9.66062744140625,-0.76495361328125,0.9105987548828125,-2.3013153076171875
1716557809591759400,9.67075927734375,-1.0877227783203125,1.077850341796875,-2.1425933837890625
1716557809601891000,9.68089111328125,-1.348724365234375,1.16839599609375,-2.081878662109375
1716557809612023000,9.69102294921875,-1.54046630859375,1.223785400390625,-2.112762451171875
1716557809622154800,9.70115478515625,-1.63421630859375,1.085296630859375,-2.208648681640625
1716557809632286700,9.71128662109375,-1.6033172607421875,0.650665283203125,-2.3386077880859375
1716557809642418400,9.72141845703125,-1.5010528564453125,-0.0460052490234375,-2.4312744140625
1716557809652550400,9.73155029296875,-1.3902587890625,-0.7235260009765625,-2.470703125
1716557809662682000,9.74168212890625,-1.3082427978515625,-1.227386474609375,-2.49200439453125
1716557809672814000,9.75181396484375,-1.2624359130859375,-1.5554962158203125,-2.5442047119140625
1716557809682945800,9.76194580078125,-1.2283477783203125,-1.8058319091796875,-2.5718994140625
1716557809693077800,9.772077880859374,-1.1793365478515625,-1.9613494873046875,-2.594268798828125
1716557809703209500,9.78220947265625,-1.13885498046875,-2.1467132568359375,-2.60491943359375
1716557809713341400,9.792341552734374,-1.086669921875,-2.4652252197265625,-2.5985260009765625
1716557809723473200,9.80247314453125,-1.0121002197265625,-2.905181884765625,-2.584686279296875
1716557809733605000,9.812605224609374,-0.922607421875,-3.243927001953125,-2.5548553466796875
1716557809743736800,9.82273681640625,-0.834197998046875,-3.3866729736328125,-2.4547119140625
1716557809753838000,9.832838134765625,-0.7574920654296875,-3.3099822998046875,-2.2437896728515625
1716557809763970000,9.842969970703125,-0.6935882568359375,-3.055389404296875,-1.9582977294921875
1716557809774101800,9.853101806640625,-0.6339263916015625,-2.712371826171875,-1.64617919921875
1716557809784233700,9.863233642578125,-0.6072998046875,-2.40130615234375,-1.3052978515625
1716557809794365400,9.873365478515625,-0.604095458984375,-2.120086669921875,-0.9441680908203125
1716557809804497400,9.883497314453125,-0.60302734375,-1.8835906982421875,-0.577728271484375
1716557809814629000,9.893629150390625,-0.60516357421875,-1.66094970703125,-0.1952972412109375
1716557809824761000,9.903760986328125,-0.6200714111328125,-1.480926513671875,0.1988525390625
1716557809834892800,9.913892822265625,-0.6360626220703125,-1.331787109375,0.566375732421875
1716557809845024800,9.924024658203125,-0.6445770263671875,-1.1602783203125,0.8891448974609375
1716557809855156500,9.934156494140625,-0.6435089111328125,-0.9280548095703125,1.1639862060546875
1716557809865288400,9.944288330078125,-0.6222076416015625,-0.646820068359375,1.3813018798828125
1716557809875420200,9.954420166015625,-0.5764007568359375,-0.37091064453125,1.544281005859375
1716557809885552000,9.96455224609375,-0.4901123046875,-0.169586181640625,1.6540069580078125
1716557809895683800,9.974683837890625,-0.3590850830078125,-0.181304931640625,1.6657257080078125
1716557809905815800,9.98481591796875,-0.2131500244140625,-0.282501220703125,1.5048675537109375
1716557809915947500,9.994947509765625,-0.033111572265625,-0.2888946533203125,1.1075286865234375
1716557809926079500,10.00507958984375,0.263031005859375,-0.4145965576171875,0.531219482421875
1716557809936211200,10.015211181640625,0.7242889404296875,-0.4678497314453125,-0.0099334716796875
1716557809946343000,10.025343017578125,0.8457183837890625,-0.1482696533203125,-0.3817138671875
1716557809956475000,10.035474853515625,0.3748779296875,0.1883544921875,-0.6661376953125
1716557809966606600,10.045606689453125,-0.3015594482421875,0.229888916015625,-0.907958984375
1716557809976738600,10.055738525390625,-0.67120361328125,0.1702423095703125,-1.078399658203125
1716557809986870300,10.065870361328125,-0.7244720458984375,0.0008544921875,-1.0496368408203125
1716557809997002200,10.076002197265625,-0.6115570068359375,-0.4369659423828125,-0.80035400390625
1716557810007134000,10.086134033203125,-0.38677978515625,-0.9834442138671875,-0.4786529541015625
1716557810017266000,10.096265869140625,-0.0778656005859375,-1.5224609375,-0.2027435302734375
1716557810027397600,10.106397705078125,0.2012481689453125,-2.11688232421875,-0.1558837890625
1716557810037529600,10.116529541015625,0.4355926513671875,-2.3757476806640625,-0.5127410888671875
1716557810047661300,10.126661376953125,0.4057769775390625,-1.593841552734375,-1.1082305908203125
1716557810057793300,10.136793212890625,0.14691162109375,0.380096435546875,-1.4693450927734375
1716557810067925000,10.146925048828125,-0.2131500244140625,2.9047698974609375,-0.7385711669921875
1716557810078057000,10.157056884765625,-0.5188751220703125,4.1372833251953125,1.2566680908203125
1716557810088188700,10.167188720703125,-0.2333831787109375,2.7140960693359375,2.472137451171875
1716557810098320600,10.177320556640625,-0.27386474609375,0.3609161376953125,1.3823699951171875
1716557810108452400,10.187452392578125,-0.4070281982421875,-2.369354248046875,-0.8887786865234375
1716557810118584300,10.197584228515625,-0.1417694091796875,-4.0375518798828125,-2.3045196533203125
1716557810128716000,10.207716064453125,0.263031005859375,-3.8095855712890625,-2.05950927734375
1716557810138848000,10.217847900390625,0.6316070556640625,-2.2159576416015625,-0.610748291015625
1716557810148979700,10.227979736328125,0.8041839599609375,-0.03216552734375,1.0478668212890625
1716557810159111700,10.238111572265625,0.7647705078125,2.1431121826171875,2.4881134033203125
1716557810169243400,10.248243408203125,0.6635589599609375,3.8272857666015625,3.601318359375
1716557810179375400,10.258375244140625,0.763702392578125,4.6038665771484375,4.1882781982421875
1716557810189507000,10.268507080078125,1.0087127685546875,4.5452728271484375,4.305450439453125
1716557810199639000,10.27863916015625,1.285675048828125,3.83367919921875,4.041259765625
1716557810209770800,10.288770751953125,1.4987335205078125,2.55535888671875,3.27001953125
1716557810219902700,10.29890283203125,1.3687744140625,1.1374969482421875,2.182373046875
1716557810230034400,10.309034423828125,0.775421142578125,0.0786285400390625,1.5155181884765625
1716557810240166400,10.31916650390625,0.0723419189453125,-0.3101959228515625,1.5357666015625
1716557810250298000,10.329298095703125,-0.33245849609375,-0.052398681640625,1.9267120361328125
1716557810260429800,10.339429931640625,-0.3697357177734375,0.448272705078125,2.2686614990234375
1716557810270561800,10.349561767578125,-0.183319091796875,0.9809112548828125,2.345367431640625
1716557810280693500,10.359693603515625,0.0947113037109375,1.3494873046875,2.1919708251953125
1716557810290825500,10.369825439453125,0.3940582275390625,1.393157958984375,1.94482421875
1716557810300957200,10.379957275390625,0.6561126708984375,1.120452880859375,1.7115325927734375
1716557810311089200,10.390089111328125,0.8382720947265625,0.7220458984375,1.56878662109375
1716557810321220900,10.400220947265625,0.954376220703125,0.42803955078125,1.548553466796875
1716557810331352800,10.410352783203125,1.0289459228515625,0.3875579833984375,1.6188507080078125
1716557810341484500,10.420484619140625,1.0289459228515625,0.6165771484375,1.718994140625
1716557810351616500,10.430616455078125,0.936279296875,1.09808349609375,1.783966064453125
1716557810361748200,10.440748291015625,0.7999267578125,1.6637420654296875,1.7253875732421875
1716557810371880200,10.450880126953125,0.6593017578125,1.9929046630859375,1.54534912109375
1716557810382012000,10.461011962890625,0.5059051513671875,1.8320465087890625,1.33123779296875
1716557810392144000,10.471143798828125,0.3439788818359375,1.2088775634765625,1.179962158203125
1716557810402275600,10.481275634765625,0.226806640625,0.446136474609375,1.1639862060546875
1716557810412407600,10.491407470703125,0.2193450927734375,-0.06732177734375,1.2577362060546875
1716557810422539300,10.501539306640625,0.285400390625,-0.2324371337890625,1.372772216796875
1716557810432671200,10.511671142578125,0.3376007080078125,-0.1759796142578125,1.47930908203125
1716557810442803000,10.521802978515625,0.350372314453125,-0.0960845947265625,1.6114044189453125
1716557810452935000,10.531934814453125,0.375946044921875,-0.0598602294921875,1.7232513427734375
1716557810463066600,10.542066650390625,0.4505157470703125,-0.0225677490234375,1.760528564453125
1716557810473198600,10.552198486328125,0.512298583984375,0.0988616943359375,1.7466888427734375
1716557810483330300,10.562330322265625,0.5186920166015625,0.368377685546875,1.7562713623046875
1716557810493462300,10.572462158203125,0.5069732666015625,0.6698455810546875,1.8489532470703125
1716557810503594000,10.582593994140625,0.5538482666015625,0.6165771484375,1.97784423828125
1716557810513726000,10.592725830078125,0.6667633056640625,-0.0044708251953125,1.844696044921875
1716557810523857700,10.602857666015625,0.672088623046875,0.0104522705078125,1.4707794189453125
1716557810533989600,10.61298974609375,0.6912689208984375,-0.1301727294921875,1.1639862060546875
1716557810544121300,10.623121337890625,0.716827392578125,-0.4721221923828125,0.9445343017578125
1716557810554253300,10.63325341796875,0.70831298828125,-0.6287078857421875,0.79541015625
1716557810564385000,10.643385009765625,0.6891326904296875,-0.4145965576171875,0.72723388671875
1716557810574516700,10.653516845703125,0.6561126708984375,0.0008544921875,0.693145751953125
1716557810584648700,10.663648681640625,0.603912353515625,0.459991455078125,0.65692138671875
1716557810594780400,10.673780517578125,0.51123046875,0.86053466796875,0.6025848388671875
1716557810604912400,10.683912353515625,0.3376007080078125,0.9894256591796875,0.5067138671875
1716557810615044000,10.694044189453125,0.08831787109375,0.8317718505859375,0.382080078125
1716557810625176000,10.704176025390625,-0.1630859375,0.6272430419921875,0.2979278564453125
1716557810635307800,10.714307861328125,-0.2802581787109375,0.6261749267578125,0.3000640869140625
1716557810645439700,10.724439697265625,-0.2664031982421875,0.6943511962890625,0.3181610107421875
1716557810655571500,10.734571533203125,-0.1939697265625,0.6144561767578125,0.270233154296875
1716557810665703400,10.744703369140625,-0.09490966796875,0.5334930419921875,0.188201904296875
1716557810675835100,10.754835205078125,-0.0096893310546875,0.6006011962890625,0.117889404296875
1716557810685967000,10.764967041015625,0.042510986328125,0.803009033203125,0.016693115234375
1716557810696098800,10.775098876953125,0.110687255859375,1.0799713134765625,-0.163330078125
1716557810706230800,10.785230712890625,0.0957794189453125,1.2983551025390625,-0.404083251953125
1716557810716362500,10.795362548828125,-0.0640106201171875,1.426177978515625,-0.6267242431640625
1716557810726494500,10.805494384765625,-0.3111572265625,1.473052978515625,-0.7833099365234375
1716557810736626200,10.815626220703125,-0.60302734375,1.4016876220703125,-0.939910888671875
1716557810746758100,10.825758056640625,-0.878936767578125,1.132171630859375,-1.1859893798828125
1716557810756889900,10.835889892578125,-1.1228790283203125,0.6794281005859375,-1.5524444580078125
1716557810767021800,10.846021728515625,-1.3316802978515625,0.072235107421875,-1.96575927734375
1716557810777153500,10.856153564453125,-1.49786376953125,-0.621246337890625,-2.3375396728515625
1716557810787285500,10.866285400390625,-1.539398193359375,-1.1741180419921875,-2.6997222900390625
1716557810797417200,10.876417236328125,-1.3401947021484375,-1.3008880615234375,-2.9990692138671875
1716557810807549200,10.886549072265625,-1.0121002197265625,-1.3466949462890625,-3.092803955078125
1716557810817681000,10.896680908203125,-0.70635986328125,-1.6098175048828125,-2.87762451171875
1716557810827812900,10.906812744140625,-0.424072265625,-1.390380859375,-2.5750885009765625
1716557810837944600,10.916944580078125,-0.2941131591796875,-0.74908447265625,-2.401458740234375
1716557810848076500,10.92707666015625,-0.206756591796875,-0.031097412109375,-2.3226318359375
1716557810858208300,10.937208251953125,-0.0842437744140625,0.3311004638671875,-2.251251220703125
1716557810868340200,10.94734033203125,-0.002227783203125,0.3151092529296875,-2.2555084228515625
1716557810878472000,10.957471923828125,-0.1460418701171875,0.173431396484375,-2.342864990234375
1716557810888604000,10.96760400390625,-0.4539031982421875,0.070098876953125,-2.465362548828125
1716557810898735600,10.977735595703125,-0.7138214111328125,-0.075836181640625,-2.568695068359375
1716557810908836900,10.9878369140625,-0.8054351806640625,-0.279296875,-2.5900115966796875
1716557810918968800,10.99796875,-0.785186767578125,-0.455078125,-2.5655059814453125
1716557810929100500,11.0081005859375,-0.73193359375,-0.632965087890625,-2.52288818359375
1716557810939232500,11.018232421875,-0.6903839111328125,-0.92059326171875,-2.52716064453125
1716557810949364200,11.0283642578125,-0.6701507568359375,-1.12298583984375,-2.579345703125
1716557810959496200,11.03849609375,-0.6797332763671875,-1.1901092529296875,-2.559112548828125
1716557810969628000,11.0486279296875,-0.72979736328125,-1.378662109375,-2.5292816162109375
1716557810979759900,11.058759765625,-0.785186767578125,-1.7472381591796875,-2.5133056640625
1716557810989891600,11.0688916015625,-0.8629608154296875,-2.22021484375,-2.48028564453125
1716557811000023600,11.0790234375,-0.957763671875,-2.72088623046875,-2.4611053466796875
1716557811010155300,11.0891552734375,-1.029144287109375,-3.07562255859375,-2.467498779296875
1716557811020287200,11.099287353515624,-1.073883056640625,-3.166168212890625,-2.399322509765625
1716557811030419000,11.1094189453125,-1.095184326171875,-2.982940673828125,-2.20330810546875
1716557811040551000,11.119551025390624,-1.1175537109375,-2.6271514892578125,-1.88800048828125
1716557811050682600,11.1296826171875,-1.139923095703125,-2.16375732421875,-1.5034332275390625
1716557811060814600,11.139814697265624,-1.1473846435546875,-1.7099609375,-1.13165283203125
1716557811070946300,11.1499462890625,-1.1271514892578125,-1.4095458984375,-0.83551025390625
1716557811081078000,11.160078125,-1.073883056640625,-1.2998199462890625,-0.632049560546875
1716557811091210000,11.1702099609375,-0.9737396240234375,-1.3126068115234375,-0.486114501953125
1716557811101341700,11.180341796875,-0.8331298828125,-1.3829193115234375,-0.3625335693359375
1716557811111473700,11.1904736328125,-0.68292236328125,-1.4532318115234375,-0.25494384765625
1716557811121605400,11.20060546875,-0.561492919921875,-1.4734649658203125,-0.1473541259765625
1716557811131737300,11.2107373046875,-0.4869232177734375,-1.4063568115234375,-0.0216522216796875
1716557811141869000,11.220869140625,-0.4613494873046875,-1.25189208984375,0.13067626953125
1716557811152001000,11.2310009765625,-0.469879150390625,-1.0430908203125,0.311767578125
1716557811162132700,11.2411328125,-0.482666015625,-0.827911376953125,0.499267578125
1716557811172264700,11.2512646484375,-0.4837188720703125,-0.656402587890625,0.667572021484375
1716557811182396400,11.261396484375,-0.467742919921875,-0.55413818359375,0.7975311279296875
1716557811192528400,11.2715283203125,-0.3953094482421875,-0.50726318359375,0.86358642578125
1716557811202660000,11.28166015625,-0.2365875244140625,-0.4859619140625,0.8337554931640625
1716557811212792000,11.2917919921875,-0.0427093505859375,-0.531768798828125,0.669708251953125
1716557811222923800,11.301923828125,0.1628875732421875,-0.6297760009765625,0.34906005859375
1716557811233055700,11.3120556640625,0.3354644775390625,-0.6660003662109375,-0.0429534912109375
1716557811243187500,11.3221875,0.3812713623046875,-0.5296478271484375,-0.3092803955078125
1716557811253319400,11.3323193359375,0.2768707275390625,-0.326171875,-0.392364501953125
1716557811263451100,11.342451171875,0.0702056884765625,-0.3357696533203125,-0.44775390625
1716557811273583000,11.3525830078125,-0.1779937744140625,-0.590362548828125,-0.6011505126953125
1716557811283714800,11.36271484375,-0.3462982177734375,-0.954681396484375,-0.8291168212890625
1716557811293846800,11.3728466796875,-0.38677978515625,-1.1485595703125,-0.9686737060546875
1716557811303978500,11.382978515625,-0.321807861328125,-1.1773223876953125,-0.97613525390625
1716557811314110500,11.3931103515625,-0.1939697265625,-1.1453704833984375,-0.90582275390625
1716557811324242200,11.4032421875,-0.117279052734375,-1.0761260986328125,-0.7726593017578125
1716557811334374100,11.4133740234375,-0.1897125244140625,-0.9514923095703125,-0.5116729736328125
1716557811344505900,11.423505859375,-0.377197265625,-0.8097991943359375,-0.1004791259765625
1716557811354637800,11.433637939453124,-0.5870513916015625,-0.761871337890625,0.3565216064453125
1716557811364769500,11.44376953125,-0.6925201416015625,-0.727783203125,0.7677001953125
1716557811374901500,11.453901611328124,-0.6541595458984375,-0.533905029296875,1.055328369140625
1716557811385033200,11.464033203125,-0.53485107421875,0.1681060791015625,0.8997955322265625
1716557811395165200,11.474165283203124,-0.399566650390625,1.3899688720703125,0.065704345703125
1716557811405297000,11.484296875,-0.470947265625,2.1558837890625,-0.1441650390625
1716557811415428600,11.4944287109375,-1.003570556640625,1.701019287109375,0.85186767578125
1716557811425560600,11.504560546875,-2.1146392822265625,0.5452117919921875,1.55706787109375
1716557811435692300,11.5146923828125,-2.933837890625,-0.5594635009765625,1.1160430908203125
1716557811445824300,11.52482421875,-2.6046600341796875,-1.683319091796875,0.427886962890625
1716557811455956000,11.5349560546875,-1.8312835693359375,-2.469482421875,-0.0152587890625
1716557811466088000,11.545087890625,-0.83099365234375,-2.5696258544921875,-0.256011962890625
1716557811476219600,11.5552197265625,0.2896575927734375,-1.741912841796875,-0.3167266845703125
1716557811486351600,11.5653515625,1.1791534423828125,-0.09820556640625,0.2808837890625
1716557811496483300,11.5754833984375,1.5211029052734375,1.736175537109375,1.50274658203125
1716557811506615300,11.585615234375,1.6127166748046875,3.3479156494140625,2.8886566162109375
1716557811516747000,11.5957470703125,1.8630523681640625,4.3524627685546875,3.8772125244140625
1716557811526879000,11.60587890625,2.269989013671875,4.4398193359375,4.2202301025390625
1716557811537010700,11.6160107421875,2.528839111328125,3.5013275146484375,3.793060302734375
1716557811547142700,11.626142578125,2.265716552734375,1.714874267578125,2.7128753662109375
1716557811557274400,11.6362744140625,1.619110107421875,0.046661376953125,1.797821044921875
1716557811567406300,11.64640625,0.6763458251953125,-0.576507568359375,1.590087890625
1716557811577538000,11.6565380859375,-0.3377838134765625,-0.2974090576171875,1.922454833984375
1716557811587670000,11.666669921875,-0.801177978515625,0.2501373291015625,2.37945556640625
1716557811597801700,11.6768017578125,-0.740447998046875,0.882904052734375,2.548828125
1716557811607933700,11.68693359375,-0.49224853515625,1.38250732421875,2.37945556640625
1716557811618065400,11.6970654296875,-0.208892822265625,1.4240570068359375,2.0417633056640625
1716557811628197400,11.707197265625,0.1170806884765625,0.9574737548828125,1.7253875732421875
1716557811638329000,11.7173291015625,0.45477294921875,0.3278961181640625,1.567718505859375
1716557811648461000,11.7274609375,0.7679595947265625,-0.1717071533203125,1.62310791015625
1716557811658592800,11.7375927734375,0.99273681640625,-0.341094970703125,1.7339019775390625
1716557811668724700,11.747724853515624,1.0726318359375,-0.0023345947265625,1.7669219970703125
1716557811678856400,11.7578564453125,1.0065765380859375,0.7071380615234375,1.741363525390625
1716557811688988400,11.767988525390624,0.8467864990234375,1.3313751220703125,1.6870269775390625
1716557811699120000,11.7781201171875,0.68060302734375,1.667999267578125,1.6412200927734375
1716557811709252000,11.788252197265624,0.53466796875,1.711669921875,1.616729736328125
1716557811719383800,11.7983837890625,0.4153594970703125,1.54443359375,1.5506744384765625
1716557811729515500,11.808515625,0.3716888427734375,1.3260498046875,1.4068603515625
1716557811739647500,11.8186474609375,0.3589019775390625,1.1119384765625,1.304595947265625
1716557811749779200,11.828779296875,0.3226776123046875,0.8541412353515625,1.3259124755859375
1716557811759911200,11.8389111328125,0.2811279296875,0.586761474609375,1.466522216796875
1716557811770043000,11.84904296875,0.25238037109375,0.3960723876953125,1.6412200927734375
1716557811780174800,11.8591748046875,0.261962890625,0.274627685546875,1.72857666015625
1716557811790306600,11.869306640625,0.3333282470703125,0.1222991943359375,1.672119140625
1716557811800438500,11.8794384765625,0.46435546875,-0.112060546875,1.522979736328125
1716557811810570200,11.8895703125,0.6188201904296875,-0.38262939453125,1.396209716796875
1716557811820702200,11.8997021484375,0.754119873046875,-0.564788818359375,1.3408203125
1716557811830834000,11.909833984375,0.841461181640625,-0.5679931640625,1.330169677734375
1716557811840966000,11.9199658203125,0.853179931640625,-0.4486846923828125,1.3248443603515625
1716557811851097600,11.93009765625,0.7668914794921875,-0.2995452880859375,1.2769012451171875
1716557811861229600,11.9402294921875,0.615631103515625,-0.1078033447265625,1.16717529296875
1716557811871361300,11.950361328125,0.465423583984375,0.116973876953125,1.0297698974609375
1716557811881493200,11.9604931640625,0.37701416015625,0.3374786376953125,0.9125823974609375
1716557811891625000,11.970625,0.350372314453125,0.597412109375,0.7740936279296875
1716557811901757000,11.9807568359375,0.3929901123046875,0.9713134765625,0.5589141845703125
1716557811911888600,11.990888671875,0.4334716796875,1.3196563720703125,0.29046630859375
1716557811922020600,12.0010205078125,0.40789794921875,1.31219482421875,0.0699615478515625
1716557811932152300,12.01115234375,0.3141632080078125,0.8871612548828125,-0.0120697021484375
1716557811942284300,12.0212841796875,0.1415863037109375,0.243743896484375,0.016693115234375
1716557811952416000,12.031416015625,-0.148162841796875,-0.153594970703125,0.065704345703125
1716557811962548000,12.0415478515625,-0.399566650390625,-0.028961181640625,0.084869384765625
1716557811972679700,12.0516796875,-0.4847869873046875,0.3151092529296875,0.028411865234375
1716557811982811600,12.061811767578124,-0.5742645263671875,0.403533935546875,-0.1367034912109375
1716557811992943400,12.071943359375,-0.8160858154296875,0.4493408203125,-0.3284454345703125
1716557812003075300,12.082075439453124,-1.098388671875,0.732696533203125,-0.554290771484375
1716557812013207000,12.09220703125,-1.3614959716796875,0.925506591796875,-0.8877105712890625
1716557812023339000,12.102339111328124,-1.5915985107421875,0.758270263671875,-1.2168731689453125
1716557812033470700,12.112470703125,-1.713043212890625,0.3609161376953125,-1.5045013427734375
1716557812043602400,12.1226025390625,-1.7055816650390625,-0.053466796875,-1.863494873046875
1716557812053734400,12.132734375,-1.597991943359375,-0.5594635009765625,-2.251251220703125
1716557812063866000,12.1428662109375,-1.3636322021484375,-1.05694580078125,-2.455780029296875
1716557812073998000,12.152998046875,-0.9279327392578125,-1.124053955078125,-2.58148193359375
1716557812084129800,12.1631298828125,-0.412353515625,-0.7533416748046875,-2.7380828857421875
1716557812094261800,12.17326171875,-0.068267822265625,-0.2633209228515625,-2.8382110595703125
1716557812104393500,12.1833935546875,-0.002227783203125,0.28741455078125,-2.751922607421875
1716557812114525400,12.193525390625,-0.128997802734375,0.9670562744140625,-2.5623016357421875
1716557812124657200,12.2036572265625,-0.3260650634765625,1.6030120849609375,-2.330078125
1716557812134789000,12.2137890625,-0.4837188720703125,2.0738677978515625,-2.1202239990234375
1716557812144890400,12.223890380859375,-0.68505859375,2.3359222412109375,-2.080810546875
1716557812155022300,12.234022216796875,-0.92474365234375,2.2656097412109375,-2.19586181640625
1716557812165154000,12.244154052734375,-1.07281494140625,1.9119415283203125,-2.3236846923828125
1716557812175286000,12.2542861328125,-1.062164306640625,1.4347076416015625,-2.4057159423828125
1716557812185417700,12.264417724609375,-0.9396514892578125,0.99688720703125,-2.4547119140625
1716557812195549700,12.2745498046875,-0.8278045654296875,0.5324249267578125,-2.4664306640625
1716557812205681400,12.284681396484375,-0.7702789306640625,0.0637054443359375,-2.48028564453125
1716557812215813400,12.2948134765625,-0.7372589111328125,-0.1706390380859375,-2.5175628662109375
1716557812225945000,12.304945068359375,-0.73193359375,-0.279296875,-2.56976318359375
1716557812236076800,12.315076904296875,-0.73193359375,-0.420989990234375,-2.6219635009765625
1716557812246208800,12.325208740234375,-0.721282958984375,-0.670257568359375,-2.6762847900390625
1716557812256340500,12.335340576171875,-0.7159576416015625,-1.081451416015625,-2.6794891357421875
1716557812266472400,12.345472412109375,-0.6935882568359375,-1.5277862548828125,-2.6187744140625
1716557812276604200,12.355604248046875,-0.6424560546875,-1.8750762939453125,-2.55804443359375
1716557812286736100,12.365736083984375,-0.5796051025390625,-1.9965057373046875,-2.4877471923828125
1716557812296867800,12.375867919921875,-0.52740478515625,-1.95709228515625,-2.345001220703125
1716557812306999800,12.385999755859375,-0.4954376220703125,-1.854827880859375,-2.079742431640625
1716557812317131500,12.396131591796875,-0.5018310546875,-1.7557525634765625,-1.7218170166015625
1716557812327263500,12.406263427734375,-0.516754150390625,-1.603424072265625,-1.3670806884765625
1716557812337395200,12.416395263671875,-0.5295257568359375,-1.4180755615234375,-1.08905029296875
1716557812347527200,12.426527099609375,-0.5305938720703125,-1.283843994140625,-0.8791961669921875
1716557812357659000,12.436658935546875,-0.524200439453125,-1.2540130615234375,-0.6895751953125
1716557812367790800,12.446790771484375,-0.5082244873046875,-1.35308837890625,-0.470123291015625
1716557812377922600,12.456922607421875,-0.44537353515625,-1.511810302734375,-0.2251129150390625
1716557812388054500,12.467054443359375,-0.3282012939453125,-1.640716552734375,0.0358734130859375
1716557812398186200,12.477186279296875,-0.2238006591796875,-1.664154052734375,0.3213653564453125
1716557812408318200,12.487318115234375,-0.1705322265625,-1.5192718505859375,0.634552001953125
1716557812418450000,12.497449951171875,-0.1577606201171875,-1.208221435546875,0.961578369140625
1716557812428582000,12.507581787109375,-0.17266845703125,-0.8002166748046875,1.2641143798828125
1716557812438713600,12.517713623046875,-0.2344512939453125,-0.407135009765625,1.4857025146484375
1716557812448845600,12.527845458984375,-0.343109130859375,-0.122711181640625,1.578369140625
1716557812458977300,12.537977294921875,-0.4379119873046875,0.006195068359375,1.513397216796875
1716557812469109200,12.548109130859375,-0.4261932373046875,-0.0034027099609375,1.30780029296875
1716557812479241000,12.558240966796875,-0.261077880859375,-0.1962127685546875,0.975433349609375
1716557812489373000,12.568373046875,0.08087158203125,-0.7213897705078125,0.484344482421875
1716557812499504600,12.578504638671875,0.4633026123046875,-1.330718994140625,-0.1388397216796875
1716557812509636600,12.58863671875,0.5623626708984375,-1.59490966796875,-0.777984619140625
1716557812519768300,12.598768310546875,0.3248138427734375,-1.4372406005859375,-1.26800537109375
1716557812529900300,12.608900390625,-0.0853118896484375,-1.067596435546875,-1.452301025390625
1716557812540032000,12.619031982421875,-0.4272613525390625,-0.8715972900390625,-1.3116912841796875
1716557812550163700,12.629163818359375,-0.5785369873046875,-1.10382080078125,-1.0006256103515625
1716557812560295700,12.639295654296875,-0.5774688720703125,-1.6204681396484375,-0.709808349609375
1716557812570427400,12.649427490234375,-0.481597900390625,-2.14031982421875,-0.62139892578125
1716557812580559400,12.659559326171875,-0.4304656982421875,-2.5110321044921875,-0.7854461669921875
1716557812590691000,12.669691162109375,-0.4965057373046875,-2.3650970458984375,-0.9430999755859375
1716557812600823000,12.679822998046875,-0.547637939453125,-1.1528167724609375,-0.85150146484375
1716557812610954800,12.689954833984375,-0.448577880859375,1.2514801025390625,-0.6192626953125
1716557812621086700,12.700086669921875,-0.48052978515625,3.7974700927734375,-0.3295135498046875
1716557812631218400,12.710218505859375,-1.085601806640625,4.0808258056640625,-0.0930328369140625
1716557812641350400,12.720350341796875,-2.396942138671875,2.901580810546875,-0.098358154296875
1716557812651482000,12.730482177734375,-3.055267333984375,1.1140594482421875,0.4918060302734375
1716557812661614000,12.740614013671875,-2.575897216796875,-0.622314453125,0.85931396484375
1716557812671745800,12.750745849609375,-1.403045654296875,-1.9208831787109375,0.2606353759765625
1716557812681877800,12.760877685546875,0.1735382080078125,-3.1491241455078125,-0.953765869140625
1716557812692009500,12.771009521484375,1.4539947509765625,-2.84979248046875,-1.2392578125
1716557812702141400,12.781141357421875,1.9109954833984375,-0.7181854248046875,-0.2038116455078125
1716557812712273200,12.791273193359375,1.6340179443359375,1.9939727783203125,1.5293731689453125
1716557812722405000,12.801405029296875,1.402862548828125,3.7239532470703125,3.130462646484375
1716557812732536800,12.811536865234375,1.65106201171875,4.1596527099609375,4.007171630859375
1716557812742668800,12.821668701171875,1.9983367919921875,3.597198486328125,3.9283447265625
1716557812752800500,12.831800537109375,1.9077911376953125,2.20703125,2.844970703125
1716557812762932500,12.841932373046875,1.2356109619140625,0.5462799072265625,1.4484100341796875
1716557812773064200,12.852064208984375,0.305633544921875,-0.39434814453125,0.9903411865234375
1716557812783196200,12.862196044921875,-0.3601531982421875,-0.200469970703125,1.464385986328125
1716557812793327900,12.872327880859375,-0.56256103515625,0.382232666015625,2.26654052734375
1716557812803459800,12.8824599609375,-0.425140380859375,0.8647918701171875,2.7714691162109375
1716557812813591600,12.892591552734375,-0.1332550048828125,1.31646728515625,2.7853240966796875
1716557812823723500,12.9027236328125,0.202301025390625,1.578521728515625,2.4849090576171875
1716557812833855200,12.912855224609375,0.5527801513671875,1.3185882568359375,2.0992889404296875
1716557812843987200,12.9229873046875,0.8393402099609375,0.5569305419921875,1.75201416015625
1716557812854119000,12.933118896484375,1.012969970703125,-0.2750396728515625,1.511260986328125
1716557812864250600,12.943250732421875,1.0673065185546875,-0.8130035400390625,1.4111328125
1716557812874382600,12.953382568359375,1.0449371337890625,-0.9472198486328125,1.4473419189453125
1716557812884514300,12.963514404296875,0.9746246337890625,-0.727783203125,1.5826416015625
1716557812894646300,12.973646240234375,0.8712921142578125,-0.2207183837890625,1.7552032470703125
1716557812904778000,12.983778076171875,0.7466583251953125,0.4088592529296875,1.9171295166015625
1716557812914910000,12.993909912109375,0.6124267578125,0.906341552734375,2.000213623046875
1716557812925041700,13.004041748046875,0.4835357666015625,1.118316650390625,1.9746551513671875
1716557812935173600,13.014173583984375,0.387664794921875,0.986236572265625,1.840423583984375
1716557812945305300,13.024305419921875,0.3258819580078125,0.6133880615234375,1.657196044921875
1716557812955437300,13.034437255859375,0.2917938232421875,0.19580078125,1.51019287109375
1716557812965569000,13.044569091796875,0.298187255859375,-0.1525421142578125,1.443084716796875
1716557812975701000,13.054700927734375,0.352508544921875,-0.3570709228515625,1.433502197265625
1716557812985832700,13.064832763671875,0.420684814453125,-0.36346435546875,1.4462738037109375
1716557812995964700,13.074964599609375,0.4600982666015625,-0.204742431640625,1.4622650146484375
1716557813006096400,13.085096435546875,0.4739532470703125,0.0679779052734375,1.4622650146484375
1716557813016228400,13.095228271484375,0.4952545166015625,0.333221435546875,1.4484100341796875
1716557813026360000,13.105360107421875,0.56024169921875,0.446136474609375,1.421783447265625
1716557813036492000,13.115491943359375,0.6561126708984375,0.403533935546875,1.3780975341796875
1716557813046623700,13.125623779296875,0.740264892578125,0.2575836181640625,1.320587158203125
1716557813056755700,13.135755615234375,0.79779052734375,0.0573272705078125,1.2460174560546875
1716557813066887400,13.145887451171875,0.808441162109375,-0.1834259033203125,1.1757049560546875
1716557813077019400,13.156019287109375,0.7786102294921875,-0.4220428466796875,1.123504638671875
1716557813087151000,13.166151123046875,0.72747802734375,-0.5157928466796875,1.0734405517578125
1716557813097283000,13.176282958984375,0.658233642578125,-0.4273681640625,0.989288330078125
1716557813107414800,13.186414794921875,0.5730133056640625,-0.268646240234375,0.872100830078125
1716557813117546800,13.196546630859375,0.4846038818359375,-0.08648681640625,0.73681640625
1716557813127678500,13.206678466796875,0.4398651123046875,0.1798248291015625,0.5844879150390625
1716557813137810400,13.216810546875,0.418548583984375,0.514312744140625,0.4097747802734375
1716557813147942100,13.226942138671875,0.340789794921875,0.744415283203125,0.2531890869140625
1716557813158074000,13.23707421875,0.2012481689453125,0.70074462890625,0.1828765869140625
1716557813168205800,13.247205810546875,0.0297393798828125,0.4546661376953125,0.232940673828125
1716557813178328000,13.257328125,-0.1662750244140625,0.27783203125,0.3213653564453125
1716557813188460000,13.2674599609375,-0.3047637939453125,0.3055267333984375,0.359710693359375
1716557813198591700,13.277591796875,-0.3271331787109375,0.4440155029296875,0.3224334716796875
1716557813208723700,13.2877236328125,-0.272796630859375,0.575042724609375,0.2084503173828125
1716557813218855400,13.29785546875,-0.2131500244140625,0.730560302734375,0.042266845703125
1716557813228987400,13.3079873046875,-0.20782470703125,0.9766387939453125,-0.1803741455078125
1716557813239119000,13.318119140625,-0.364410400390625,1.1492156982421875,-0.3849029541015625
1716557813249251000,13.3282509765625,-0.653106689453125,1.2269744873046875,-0.49676513671875
1716557813259382800,13.3383828125,-0.9524383544921875,1.2962188720703125,-0.61181640625
1716557813269514800,13.3485146484375,-1.2230224609375,1.2312469482421875,-0.8972930908203125
1716557813279646500,13.358646484375,-1.3647003173828125,0.9436187744140625,-1.3542938232421875
1716557813289778400,13.3687783203125,-1.3742828369140625,0.3875579833984375,-1.820892333984375
1716557813299910100,13.37891015625,-1.31463623046875,-0.272918701171875,-2.23101806640625
1716557813310042000,13.3890419921875,-1.254974365234375,-0.7533416748046875,-2.570831298828125
1716557813320173800,13.399173828125,-1.1580352783203125,-0.966400146484375,-2.7338104248046875
1716557813330305800,13.409305908203125,-0.9630889892578125,-0.8779754638671875,-2.719970703125
1716557813340437500,13.4194375,-0.70635986328125,-0.5733184814453125,-2.64007568359375
1716557813350569500,13.429569580078125,-0.469879150390625,-0.2292327880859375,-2.5420684814453125
1716557813360701200,13.439701171875,-0.3015594482421875,0.1883544921875,-2.3822784423828125
1716557813370833200,13.449833251953125,-0.249359130859375,0.744415283203125,-2.192657470703125
1716557813380964900,13.45996484375,-0.2930450439453125,1.369720458984375,-2.0264739990234375
1716557813391096800,13.470096923828125,-0.3345947265625,1.8128814697265625,-1.93060302734375
1716557813401228500,13.480228515625,-0.41448974609375,1.9044952392578125,-1.9593658447265625
