time,seconds_elapsed,z,y,x
1716557800293514000,0.372513916015625,-1.8202147483825684,1.1108155250549316,0.2804250121116638
1716557800304012000,0.383011962890625,-1.7009882926940918,1.0619428157806396,0.1358952820301056
1716557800314510000,0.393510009765625,-1.5353894233703613,1.041529893875122,0.04903964698314667
1716557800325008100,0.404008056640625,-1.1992592811584473,1.035634994506836,-0.011796683073043823
1716557800335445000,0.414445068359375,-0.6993398666381836,0.9799246788024902,-0.09568332880735397
1716557800345912600,0.42491259765625,-0.18771886825561523,0.8376712799072266,-0.3291158676147461
1716557800356319000,0.435319091796875,0.31166744232177734,0.6396775245666504,-0.7171697616577148
1716557800366756000,0.445756103515625,0.6806163787841797,0.432725191116333,-1.179426670074463
1716557800377132000,0.456132080078125,0.8344821929931641,0.3410301208496094,-1.5793633460998535
1716557800387538400,0.466538330078125,0.851381778717041,0.3413693904876709,-1.836803674697876
1716557800397914600,0.47691455078125,0.8267989158630371,0.44924187660217285,-1.9038910865783691
1716557800408260000,0.487260009765625,0.8716855049133301,0.5985121726989746,-1.8333923816680908
1716557800418605600,0.49760546875,1.058748722076416,0.8006289005279541,-1.7839994430541992
1716557800428950800,0.50795068359375,1.257338047027588,1.033787488937378,-1.8484315872192383
1716557800439296300,0.518296142578125,1.4041862487792969,1.168900728225708,-1.9798552989959717
1716557800449611300,0.528611328125,1.3942546844482422,1.1761877536773682,-2.1297850608825684
1716557800459926300,0.53892626953125,1.2602429389953613,1.153393268585205,-2.2696778774261475
1716557800470210600,0.54921044921875,1.2026734352111816,1.194413423538208,-2.3505988121032715
1716557800480525600,0.559525634765625,1.3924212455749512,1.3669772148132324,-2.335207939147949
1716557800490810000,0.56981005859375,1.7399158477783203,1.6478955745697021,-2.163437843322754
1716557800501064000,0.58006396484375,2.085418224334717,1.8661234378814697,-1.7474305629730225
1716557800511348500,0.590348388671875,2.461583137512207,2.0043325424194336,-1.2002745866775513
1716557800521602300,0.600602294921875,3.174708843231201,2.0531253814697266,-0.6078684329986572
1716557800531856100,0.610856201171875,3.832174301147461,1.996142864227295,0.0031175613403320312
1716557800542110200,0.621110107421875,4.358870506286621,1.8408682346343994,0.5348153710365295
1716557800552364000,0.631364013671875,4.965231895446777,1.624701976776123,0.9467583298683167
1716557800562587400,0.64158740234375,5.329031467437744,1.3626573085784912,1.1409521102905273
1716557800572810800,0.651810791015625,4.97533655166626,1.0636241436004639,1.157140851020813
1716557800583064600,0.662064697265625,3.9685425758361816,0.7953517436981201,1.0527592897415161
1716557800593288200,0.6722880859375,4.967053413391113,0.6979284286499023,1.427120327949524
1716557800603480800,0.682480712890625,3.0138492584228516,0.965919017791748,2.8569650650024414
1716557800613704400,0.692704345703125,4.9195709228515625,1.4750714302062988,2.6954779624938965
1716557800623927800,0.702927734375,11.425189018249512,2.2104954719543457,3.7899272441864014
1716557800634120700,0.71312060546875,1.5380315780639648,1.0360913276672363,2.875109910964966
1716557800644313300,0.723313232421875,2.8962574005126953,0.47396135330200195,2.7497594356536865
1716557800654537000,0.733536865234375,3.100039482116699,0.04400014877319336,3.1109814643859863
1716557800664729600,0.7437294921875,0.02654266357421875,-0.5226507186889648,2.013415575027466
1716557800674922500,0.753922607421875,-1.020498275756836,-0.8074946403503418,1.2135545015335083
1716557800685085000,0.7640849609375,-0.8962774276733398,-0.6637616157531738,0.9259809851646423
1716557800695277800,0.77427783203125,-0.6080427169799805,-0.22989892959594727,1.5478371381759644
1716557800705470700,0.784470703125,-0.574162483215332,-0.12372684478759766,1.7260171175003052
1716557800715633200,0.794633056640625,-0.7864198684692383,-0.13745784759521484,1.5954408645629883
1716557800725825800,0.80482568359375,-0.8802356719970703,-0.3939056396484375,1.0934779644012451
1716557800735988200,0.81498828125,-0.48594188690185547,-0.8123159408569336,0.5982328653335571
1716557800746181000,0.82518115234375,-0.44335460662841797,-1.0059022903442383,0.5555208325386047
1716557800756343600,0.835343505859375,-0.7814626693725586,-0.974116325378418,0.7699815034866333
1716557800766505700,0.845505615234375,-0.5578718185424805,-0.9640035629272461,0.9106037616729736
1716557800776668200,0.855668212890625,-0.07379722595214844,-1.1395378112792969,0.931337296962738
1716557800786830600,0.86583056640625,0.4484891891479492,-1.3731374740600586,0.8323709964752197
1716557800797023500,0.8760234375,-4.868029594421387,-0.9846110343933105,0.5438880920410156
1716557800807185700,0.886185546875,0.43328857421875,-0.7502634525299072,0.6724953651428223
1716557800817317600,0.896317626953125,-0.6535711288452148,-0.7657783031463623,1.2001558542251587
1716557800827480000,0.90647998046875,1.1230134963989258,-0.6884288787841797,1.2643119096755981
1716557800837642200,0.916642333984375,1.1361827850341797,-0.20784211158752441,1.1563407182693481
1716557800847804700,0.9268046875,0.9611167907714844,0.33672165870666504,1.518832802772522
1716557800857967000,0.936967041015625,-0.05214977264404297,0.38579320907592773,1.0558855533599854
1716557800868129300,0.94712939453125,-1.323735237121582,0.334322452545166,0.4256676435470581
1716557800878261200,0.95726123046875,-2.0363845825195312,0.43370532989501953,-0.06225103139877319
1716557800888423700,0.967423583984375,-2.2832202911376953,0.49213314056396484,-0.13889789581298828
1716557800898585900,0.9775859375,-2.105046272277832,0.34424376487731934,-0.15756547451019287
1716557800908717800,0.9877177734375,-2.4050750732421875,0.21627497673034668,-0.3123002052307129
1716557800918880000,0.9978798828125,-2.6252822875976562,0.1410987377166748,-0.5289592742919922
1716557800929012000,1.008011962890625,-2.785593032836914,0.2534327507019043,-0.4783554673194885
1716557800939174400,1.01817431640625,-2.903411865234375,0.39077162742614746,-0.01782703399658203
1716557800949306000,1.02830615234375,-3.4449501037597656,0.729625940322876,0.4534856677055359
1716557800959468500,1.038468505859375,-3.915621757507324,1.295907974243164,0.8109878897666931
1716557800969600300,1.048600341796875,-3.9120712280273438,1.476409912109375,1.0878338813781738
1716557800979762700,1.0587626953125,-3.432877540588379,1.3227362632751465,1.2308084964752197
1716557800989894400,1.068894287109375,-2.340250015258789,1.0696866512298584,1.060239315032959
1716557801000026400,1.0790263671875,-1.2588253021240234,0.9059512615203857,0.8423914313316345
1716557801010188800,1.089188720703125,-0.4520759582519531,0.8268740177154541,0.7254649996757507
1716557801020320500,1.099320556640625,0.20629596710205078,0.8019037246704102,0.5425333976745605
1716557801030452500,1.109452392578125,0.5161418914794922,0.8042232990264893,0.5428112149238586
1716557801040614700,1.11961474609375,0.3375825881958008,0.9258179664611816,0.6359284520149231
1716557801050746600,1.12974658203125,-0.11739826202392578,0.9615168571472168,0.689331591129303
1716557801060878300,1.13987841796875,-0.247650146484375,0.9181270599365234,0.7574703097343445
1716557801071010300,1.15001025390625,-0.03765392303466797,0.9512414932250977,0.7605049014091492
1716557801081172500,1.16017236328125,0.13830852508544922,1.0380921363830566,0.7019777894020081
1716557801091304400,1.170304443359375,0.1795635223388672,1.1240458488464355,0.657429039478302
1716557801101436200,1.180436279296875,0.15742111206054688,1.2253632545471191,0.6247302889823914
1716557801111568100,1.190568115234375,0.11474609375,1.3616275787353516,0.5947984457015991
1716557801121730600,1.20073046875,0.13544750213623047,1.5429515838623047,0.5681371688842773
1716557801131862300,1.2108623046875,0.29865264892578125,1.6383085250854492,0.5855288505554199
1716557801141994200,1.220994140625,0.5715913772583008,1.5815796852111816,0.5656728744506836
1716557801152126000,1.2311259765625,0.9596099853515625,1.4495501518249512,0.5709458589553833
1716557801162258000,1.2412578125,1.4650774002075195,1.2360806465148926,0.6832069158554077
1716557801172420000,1.251420166015625,2.050302505493164,1.0856475830078125,0.7705652713775635
1716557801182552000,1.261552001953125,2.5897178649902344,1.151761531829834,0.5655385255813599
1716557801192683800,1.271683837890625,2.952225685119629,1.5215697288513184,0.1588146686553955
1716557801202815700,1.281815673828125,2.838224411010742,2.0504260063171387,-0.27864423394203186
1716557801212947500,1.291947509765625,2.397702217102051,2.369046211242676,-0.44793927669525146
1716557801223079400,1.302079345703125,1.883371353149414,2.2684388160705566,-0.2804722487926483
1716557801233211100,1.312211181640625,1.243363380432129,1.9083456993103027,0.13877469301223755
1716557801243343000,1.322343017578125,1.0561532974243164,1.4807319641113281,0.5923015475273132
1716557801253474800,1.332474853515625,1.870920181274414,1.1166014671325684,1.2227765321731567
1716557801263606800,1.342606689453125,3.7240705490112305,0.6886372566223145,1.6793298721313477
1716557801273769000,1.35276904296875,5.918576240539551,0.22800207138061523,2.365591049194336
1716557801283901000,1.36290087890625,7.9634199142456055,-0.5352969169616699,2.353236675262451
1716557801294032600,1.37303271484375,8.884332656860352,-1.3151426315307617,1.9010252952575684
1716557801304164600,1.38316455078125,8.334179878234863,-1.9297795295715332,0.9568425416946411
1716557801314296300,1.39329638671875,6.529829025268555,-2.1058268547058105,0.05745971202850342
1716557801324428300,1.40342822265625,4.208887100219727,-2.0402865409851074,-0.46107491850852966
1716557801334560000,1.41356005859375,1.7899055480957031,-1.8904576301574707,-0.6505445241928101
1716557801344692000,1.42369189453125,-0.6931905746459961,-1.7488131523132324,-0.7041783332824707
1716557801354823700,1.43382373046875,-2.621811866760254,-1.6536712646484375,-0.6261724829673767
1716557801364955600,1.44395556640625,-3.384410858154297,-1.4175043106079102,-0.21853701770305634
1716557801375087400,1.45408740234375,-2.968996047973633,-1.174522876739502,0.2505660951137543
1716557801385219300,1.46421923828125,-1.9139204025268555,-1.0976595878601074,0.6213141679763794
1716557801395351000,1.47435107421875,-0.9632081985473633,-1.165268898010254,0.7237558960914612
1716557801405483000,1.48448291015625,-0.29407501220703125,-1.2925825119018555,0.6456543207168579
1716557801415614700,1.49461474609375,-0.06068897247314453,-1.4795660972595215,0.45573610067367554
1716557801425746700,1.50474658203125,-0.26641082763671875,-1.7310137748718262,0.2012048065662384
1716557801435878400,1.51487841796875,-0.5958213806152344,-1.971865177154541,0.06793446838855743
1716557801446010000,1.525010009765625,-0.7337570190429688,-2.108722686767578,0.055743247270584106
1716557801456142000,1.53514208984375,-0.7159337997436523,-2.1574530601501465,0.13068760931491852
1716557801466273800,1.545273681640625,-0.7124090194702148,-2.1305341720581055,0.1314280778169632
1716557801476405800,1.55540576171875,-0.7775459289550781,-2.017190933227539,0.25620701909065247
1716557801486537500,1.565537353515625,-1.003072738647461,-1.961348533630371,0.32587730884552
1716557801496669400,1.57566943359375,-1.3156671524047852,-1.885608196258545,0.388166606426239
1716557801506801200,1.58580126953125,-1.65191650390625,-1.6947176456451416,0.3768569231033325
1716557801516933000,1.59593310546875,-2.02553653717041,-1.475818157196045,0.33357906341552734
1716557801527064800,1.60606494140625,-2.3148059844970703,-1.2724330425262451,0.3281025290489197
1716557801537196800,1.61619677734375,-2.556682586669922,-1.130539894104004,0.32051002979278564
1716557801547328500,1.62632861328125,-2.817087173461914,-1.0539097785949707,0.24047991633415222
1716557801557460500,1.63646044921875,-3.180612564086914,-0.981661319732666,-0.010215766727924347
1716557801567592200,1.64659228515625,-3.4083967208862305,-0.9098286628723145,-0.32708504796028137
1716557801577724200,1.65672412109375,-3.3574447631835938,-0.8602132797241211,-0.5485245585441589
1716557801587856000,1.66685595703125,-3.046322822570801,-0.8495607376098633,-0.704214870929718
1716557801597987800,1.67698779296875,-2.8354663848876953,-0.809504508972168,-0.7979553937911987
1716557801608119600,1.68711962890625,-2.709836006164551,-0.6998581886291504,-0.7901467084884644
1716557801618251500,1.69725146484375,-2.5136842727661133,-0.5270519256591797,-0.7202503085136414
1716557801628383200,1.70738330078125,-2.2417869567871094,-0.2934403419494629,-0.6468508839607239
1716557801638515200,1.71751513671875,-1.8533658981323242,-0.09397530555725098,-0.4931080639362335
1716557801648647000,1.72764697265625,-1.3505706787109375,0.10507416725158691,-0.23822861909866333
1716557801658779000,1.73777880859375,-0.820836067199707,0.2747824192047119,-0.0630430281162262
1716557801668910600,1.74791064453125,-0.5720577239990234,0.3411264419555664,-0.20643404126167297
1716557801679042600,1.75804248046875,-0.5827608108520508,0.33228611946105957,-0.598278820514679
1716557801689174300,1.76817431640625,-0.746617317199707,0.17299628257751465,-0.639475405216217
1716557801699306200,1.77830615234375,-0.9260854721069336,-0.061040639877319336,-0.6322689056396484
1716557801709438000,1.78843798828125,0.02113056182861328,0.2925601005554199,-1.8657326698303223
1716557801719570000,1.79856982421875,-0.043112754821777344,0.669853687286377,-2.7657594680786133
1716557801729701600,1.80870166015625,-0.5721702575683594,0.5912933349609375,-2.61972975730896
1716557801739833600,1.81883349609375,-0.8394756317138672,0.508659839630127,-1.9528636932373047
1716557801749965300,1.82896533203125,-0.9427061080932617,0.6327314376831055,-1.3848106861114502
1716557801760097000,1.839096923828125,-0.9851970672607422,0.8097834587097168,-1.2161551713943481
1716557801770229000,1.84922900390625,-1.9360389709472656,0.988746166229248,-1.347687005996704
1716557801780360700,1.859360595703125,-2.100855827331543,1.2532968521118164,-0.9881376028060913
1716557801790492700,1.86949267578125,-0.7917356491088867,1.7032356262207031,-0.02846163511276245
1716557801800624400,1.879624267578125,1.0131196975708008,2.3157811164855957,0.9172985553741455
1716557801810756400,1.88975634765625,2.5596961975097656,2.7006139755249023,1.1230473518371582
1716557801820888000,1.89988818359375,3.415109634399414,2.6451025009155273,0.7183815836906433
1716557801831020000,1.91002001953125,3.8549375534057617,2.1944708824157715,0.1903839111328125
1716557801841151700,1.92015185546875,4.173882484436035,1.570871353149414,0.019081950187683105
1716557801851283700,1.93028369140625,4.246476173400879,0.8172297477722168,0.2041897177696228
1716557801861415400,1.94041552734375,4.027276992797852,0.23781108856201172,0.36035168170928955
1716557801871547400,1.95054736328125,3.290006637573242,-0.13353300094604492,0.3652069568634033
1716557801881679000,1.96067919921875,2.192990303039551,-0.22632265090942383,0.16150033473968506
1716557801891811000,1.97081103515625,1.4454584121704102,0.1128082275390625,-0.11167126893997192
1716557801901942800,1.98094287109375,1.0631427764892578,0.5787920951843262,-0.07502183318138123
1716557801912074800,1.99107470703125,0.7588748931884766,0.6828956604003906,0.16361719369888306
1716557801922206500,2.00120654296875,0.6314821243286133,0.2759056091308594,0.3653399646282196
1716557801932338400,2.01133837890625,1.0450782775878906,-0.5094094276428223,0.4616261422634125
1716557801942470100,2.02147021484375,2.5188589096069336,-1.2478489875793457,0.5455407500267029
1716557801952602000,2.03160205078125,4.372553825378418,-1.6630125045776367,0.6820462346076965
1716557801962733800,2.04173388671875,5.71090030670166,-1.6747164726257324,0.998368501663208
1716557801972865800,2.05186572265625,5.853055953979492,-1.4421019554138184,1.501546859741211
1716557801982997500,2.06199755859375,4.472068786621094,-1.1890068054199219,2.018922805786133
1716557801993129500,2.07212939453125,2.084967613220215,-0.9522371292114258,1.9869499206542969
1716557802003261200,2.08226123046875,-0.27263450622558594,-0.7461142539978027,2.198293924331665
1716557802013393200,2.09239306640625,-2.2846174240112305,-0.633063793182373,2.3133578300476074
1716557802023524900,2.10252490234375,-3.5674047470092773,-0.4235258102416992,2.4618916511535645
1716557802033656800,2.11265673828125,-3.6259336471557617,-0.06825590133666992,2.62483811378479
1716557802043788500,2.12278857421875,-2.8069276809692383,0.21802949905395508,2.892507553100586
1716557802053920500,2.13292041015625,-1.9063920974731445,0.15239334106445312,3.219245672225952
1716557802064052200,2.14305224609375,-0.4436006546020508,-0.2635762691497803,3.3583672046661377
1716557802074184000,2.153183837890625,1.0795202255249023,-0.8945720195770264,3.148951530456543
1716557802084316000,2.16331591796875,1.9517831802368164,-1.519641637802124,1.4940632581710815
1716557802094447600,2.173447509765625,2.2576723098754883,-1.8537037372589111,0.7420458793640137
1716557802104579600,2.18357958984375,2.310999870300293,-1.7659597396850586,0.262225866317749
1716557802114711300,2.193711181640625,1.896860122680664,-1.4646871089935303,-0.023235440254211426
1716557802124843300,2.20384326171875,0.9183225631713867,-1.0688529014587402,0.14871132373809814
1716557802134975000,2.21397509765625,-0.5707321166992188,-0.6795361042022705,0.5894680023193359
1716557802145107000,2.22410693359375,-2.128952980041504,-0.40963101387023926,0.9519347548484802
1716557802155238700,2.23423876953125,-2.991788864135742,-0.14227294921875,0.5289382934570312
1716557802165370600,2.24437060546875,-2.4862842559814453,0.3016822338104248,-0.8313026428222656
1716557802175502300,2.25450244140625,-1.4384918212890625,0.4129514694213867,-2.2776694297790527
1716557802185634300,2.26463427734375,-1.0376033782958984,0.11311554908752441,-2.4881725311279297
1716557802195766000,2.27476611328125,-1.1765270233154297,-0.6806967258453369,-2.4264655113220215
1716557802205898000,2.28489794921875,-1.2188777923583984,-1.1925265789031982,-2.6959123611450195
1716557802216029700,2.29502978515625,-1.2251033782958984,-0.925330638885498,-2.6099421977996826
1716557802226161700,2.30516162109375,-1.728236198425293,-0.2818009853363037,-1.7343934774398804
1716557802236293400,2.31529345703125,-2.4953603744506836,0.2983560562133789,-0.7559733986854553
1716557802246425300,2.32542529296875,-3.2846527099609375,0.7723596096038818,-0.05188196897506714
1716557802256557000,2.33555712890625,-3.7495298385620117,1.0312232971191406,0.12101984024047852
1716557802266689000,2.34568896484375,-3.7933616638183594,0.9467267990112305,-0.13586246967315674
1716557802276820700,2.35582080078125,-3.6294240951538086,0.6902542114257812,-0.6217197179794312
1716557802286952700,2.36595263671875,-2.9091358184814453,0.33886289596557617,-1.041157841682434
1716557802297084400,2.37608447265625,-1.989542007446289,0.14238500595092773,-1.2538299560546875
1716557802307216400,2.38621630859375,-1.4812145233154297,0.09974098205566406,-1.0175758600234985
1716557802317348000,2.39634814453125,-1.3722515106201172,0.04064035415649414,-0.8568960428237915
1716557802327480000,2.40647998046875,-1.5213899612426758,0.16117548942565918,-0.7751448154449463
1716557802337611800,2.41661181640625,-1.8727874755859375,0.3882572650909424,-0.6358842849731445
1716557802347743700,2.42674365234375,-2.369927406311035,0.6338069438934326,-0.48032641410827637
1716557802357875500,2.43687548828125,-2.4774351119995117,0.9336230754852295,-0.3584328889846802
1716557802368007400,2.44700732421875,-2.246748924255371,1.1984846591949463,-0.2773315906524658
1716557802378139100,2.45713916015625,-1.7712783813476562,1.2423763275146484,-0.03996706008911133
1716557802388271000,2.46727099609375,-1.0864009857177734,1.244591236114502,0.10817110538482666
1716557802398402800,2.47740283203125,-0.6155834197998047,1.2451786994934082,0.1379009485244751
1716557802408534500,2.487534423828125,-0.5000686645507812,0.8917834758758545,-0.3197065591812134
1716557802418666500,2.49766650390625,-0.10465049743652344,0.46747398376464844,-0.9189621210098267
1716557802428798200,2.507798095703125,0.24567890167236328,0.304671049118042,-0.7426760196685791
1716557802438930200,2.51793017578125,0.23347854614257812,0.4712226390838623,-0.062169671058654785
1716557802449062000,2.528061767578125,0.73291015625,0.8057897090911865,0.5246038436889648
1716557802459193900,2.53819384765625,1.691939353942871,1.1017391681671143,0.842592716217041
1716557802469325600,2.54832568359375,2.3013381958007812,1.20485258102417,0.8589494228363037
1716557802479457500,2.55845751953125,1.9464130401611328,1.0071215629577637,0.7694109678268433
1716557802489589200,2.56858935546875,1.8702316284179688,0.6145312786102295,0.8417961597442627
1716557802499721200,2.57872119140625,2.526369094848633,0.1397848129272461,0.9788211584091187
1716557802509853000,2.58885302734375,3.9007034301757812,-0.19857501983642578,1.1152423620224
1716557802519985000,2.59898486328125,5.643781661987305,-0.4175605773925781,1.3484883308410645
1716557802530116600,2.60911669921875,6.593085289001465,-0.7680966854095459,1.3622113466262817
1716557802540248600,2.61924853515625,6.32395076751709,-1.363938808441162,0.8943982124328613
1716557802550380300,2.62938037109375,5.095947265625,-1.8576788902282715,0.3935033082962036
1716557802560512300,2.63951220703125,3.3826732635498047,-1.9488773345947266,0.25623106956481934
1716557802570644000,2.64964404296875,2.003326416015625,-1.6100132465362549,0.5335372686386108
1716557802580776000,2.65977587890625,1.5930252075195312,-1.174509048461914,0.8833479881286621
1716557802590907600,2.66990771484375,1.614680290222168,-1.1519324779510498,0.7306044101715088
1716557802601039600,2.68003955078125,1.8132209777832031,-1.4095277786254883,0.30634772777557373
1716557802611140900,2.690140869140625,2.190420150756836,-1.5958151817321777,0.1913912296295166
1716557802621272600,2.7002724609375,2.3074989318847656,-1.8273375034332275,0.04821598529815674
1716557802631404500,2.710404541015625,2.319936752319336,-1.990976095199585,-0.1981675624847412
1716557802641536300,2.720536376953125,2.0888967514038086,-1.8004601001739502,-0.21472668647766113
1716557802651668200,2.730668212890625,1.3835887908935547,-1.358210802078247,0.13351595401763916
1716557802661800000,2.740800048828125,0.9997749328613281,-0.9440407752990723,0.5375024080276489
1716557802671932000,2.750931884765625,0.972010612487793,-0.6453673839569092,0.7366368770599365
1716557802682063600,2.761063720703125,0.5938749313354492,-0.5037549734115601,0.71434485912323
1716557802692195600,2.771195556640625,-0.1302328109741211,-0.5374327898025513,0.4774061441421509
1716557802702327300,2.781327392578125,-0.6312808990478516,-0.7644704580307007,0.06626474857330322
1716557802712459300,2.791459228515625,-0.9109106063842773,-1.0101113319396973,-0.3485463857650757
1716557802722591000,2.801591064453125,-0.8866434097290039,-0.938113808631897,-0.14741253852844238
1716557802732723000,2.811722900390625,-0.5711259841918945,-0.6405686140060425,0.46222376823425293
1716557802742854700,2.821854736328125,-0.6426486968994141,-0.6641970872879028,0.3544059991836548
1716557802752986600,2.831986572265625,-1.4413766860961914,-1.147324800491333,-0.6138262748718262
1716557802763118300,2.842118408203125,-2.398927688598633,-1.4846994876861572,-1.1462650299072266
1716557802773250300,2.852250244140625,-3.038926124572754,-1.443676233291626,-1.0875306129455566
1716557802783382000,2.862382080078125,-3.1586532592773438,-1.0952802896499634,-0.4098128080368042
1716557802793514000,2.872513916015625,-2.587736129760742,-0.4764704704284668,0.6981834173202515
1716557802803645700,2.882645751953125,-1.9308137893676758,-0.1058502197265625,0.6515902280807495
1716557802813777700,2.892777587890625,-1.7824745178222656,-0.5657023191452026,1.0165274143218994
1716557802823909400,2.902909423828125,-2.3763046264648438,-2.227621078491211,-1.0322394371032715
1716557802834041300,2.913041259765625,-2.529876708984375,-3.4819436073303223,-2.7171273231506348
1716557802844173000,2.923173095703125,-1.695068359375,-1.4955580234527588,-1.0084178447723389
1716557802854305000,2.933304931640625,-1.1931190490722656,1.1736299991607666,-1.0307815074920654
1716557802864436700,2.943436767578125,-1.2167816162109375,2.5598669052124023,1.579912543296814
1716557802874568700,2.953568603515625,-2.2800140380859375,1.9334267377853394,2.8985748291015625
1716557802884700400,2.963700439453125,-2.464872360229492,0.36611294746398926,0.3319450616836548
1716557802894832000,2.97383203125,-2.4950037002563477,-0.7673735618591309,-0.8362975120544434
1716557802904964000,2.983964111328125,-2.6502742767333984,-0.8213824033737183,-0.972996711730957
1716557802915095800,2.994095703125,-2.4587507247924805,-0.1848587989807129,-0.3976036310195923
1716557802925227800,3.004227783203125,-2.0739450454711914,0.27528417110443115,0.22696661949157715
1716557802935359500,3.014359375,-1.9399757385253906,0.49724632501602173,0.37215936183929443
1716557802945491500,3.024491455078125,-2.282343864440918,0.6493490934371948,0.28137731552124023
1716557802955623200,3.034623046875,-2.5556135177612305,0.6325669288635254,0.08747684955596924
1716557802965755100,3.044755126953125,-2.642641067504883,0.3941410183906555,-0.3417454957962036
1716557802975886800,3.054886962890625,-2.4194202423095703,0.0311124324798584,-0.8899202346801758
1716557802986018800,3.065018798828125,-2.0023393630981445,-0.33869248628616333,-1.4694077968597412
1716557802996150500,3.075150634765625,-1.669839859008789,-0.7245680689811707,-2.0089542865753174
1716557803006282500,3.085282470703125,-1.631211280822754,-0.7994770407676697,-2.1443288326263428
1716557803016414200,3.095414306640625,-1.7780179977416992,-0.24472284317016602,-1.8263407945632935
1716557803026546200,3.105546142578125,-2.0175657272338867,0.387748658657074,-1.0309480428695679
1716557803036678000,3.115677978515625,-2.277420997619629,0.8849575519561768,-0.25591111183166504
1716557803046809900,3.125809814453125,-2.351736068725586,1.2125060558319092,0.28934764862060547
1716557803056941600,3.135941650390625,-2.2767114639282227,1.2795825004577637,0.3476696014404297
1716557803067073500,3.146073486328125,-1.9768095016479492,1.0293233394622803,0.25919055938720703
1716557803077205200,3.156205322265625,-0.9625864028930664,0.50347501039505,0.3687160015106201
1716557803087337200,3.166337158203125,0.5995349884033203,-0.3473570942878723,0.061794281005859375
1716557803097469000,3.176468994140625,2.6402034759521484,-1.2858556509017944,-0.6274960041046143
1716557803107601000,3.186600830078125,5.150760650634766,-2.1265039443969727,-1.069979190826416
1716557803117732600,3.196732666015625,7.166294097900391,-2.5657966136932373,-1.1321961879730225
1716557803127864600,3.206864501953125,8.037094116210938,-2.601332187652588,-0.9380548000335693
1716557803137996300,3.216996337890625,6.777290344238281,-2.589674234390259,-1.0119445323944092
1716557803148128300,3.227128173828125,4.067840576171875,-2.7524898052215576,-1.3082551956176758
1716557803158260000,3.237260009765625,1.0066213607788086,-2.7552921772003174,-1.7520127296447754
1716557803168388900,3.247388916015625,-0.49579811096191406,-2.5501925945281982,-1.7069871425628662
1716557803178520800,3.257520751953125,0.3219003677368164,-2.1484222412109375,-0.4610927104949951
1716557803188652500,3.267652587890625,2.4937572479248047,-1.7134555578231812,-0.6279900074005127
1716557803198784500,3.277784423828125,4.583408355712891,-1.4157719612121582,1.5119798183441162
1716557803208916200,3.287916259765625,5.21241569519043,-1.3944151401519775,3.123461961746216
1716557803219048200,3.298048095703125,4.329041481018066,-1.4896395206451416,3.8677937984466553
1716557803229180000,3.308179931640625,2.6088695526123047,-1.8700847625732422,3.590045928955078
1716557803239312000,3.318311767578125,0.9875583648681641,-2.2381157875061035,2.802088737487793
1716557803249443600,3.328443603515625,-0.2637968063354492,-2.5563762187957764,2.2640936374664307
1716557803259575600,3.338575439453125,-1.3089237213134766,-3.087284564971924,1.6324641704559326
1716557803269707300,3.348707275390625,-2.352871894836426,-3.5280845165252686,0.9847421646118164
1716557803279839200,3.358839111328125,-3.161860466003418,-3.518092155456543,0.7060799598693848
1716557803289971000,3.368970947265625,-3.688277244567871,-3.593672275543213,0.9297466278076172
1716557803300103000,3.37910302734375,-4.168097972869873,-4.098151683807373,1.04518461227417
1716557803310234600,3.389234619140625,-4.023375988006592,-4.343958854675293,0.5283966064453125
1716557803320366600,3.39936669921875,-2.3420042991638184,-4.019372940063477,0.046661376953125
1716557803330498300,3.409498291015625,-0.13544368743896484,-3.517664670944214,0.029996871948242188
1716557803340630300,3.41963037109375,1.3212814331054688,-3.2781717777252197,0.23455524444580078
1716557803350762000,3.429761962890625,1.7876091003417969,-3.4979476928710938,0.33728742599487305
1716557803360863200,3.43986328125,1.8064632415771484,-3.4427356719970703,0.10824298858642578
1716557803370995200,3.4499951171875,2.049254894256592,-3.1512844562530518,-0.3832259178161621
1716557803381127000,3.460126953125,2.234064817428589,-3.4136435985565186,-1.2594051361083984
1716557803391259000,3.4702587890625,2.2494781017303467,-3.4352941513061523,-1.1115331649780273
1716557803401390600,3.480390625,2.99112606048584,-2.911087989807129,-0.5199460983276367
1716557803411522600,3.4905224609375,3.8036863803863525,-1.872626781463623,-0.7323036193847656
1716557803421654300,3.500654296875,5.2456865310668945,-0.8243987560272217,-0.046382904052734375
1716557803431786200,3.5107861328125,6.684388160705566,0.43675899505615234,1.5585203170776367
1716557803441918000,3.52091796875,7.4868669509887695,1.2441596984863281,3.7728519439697266
1716557803452050000,3.5310498046875,7.728950500488281,1.2096257209777832,5.442739486694336
1716557803462181600,3.541181640625,7.3125715255737305,0.5450649261474609,5.563409805297852
1716557803472313600,3.551313720703125,6.082897186279297,0.14190101623535156,4.725318431854248
1716557803482445300,3.5614453125,3.650383710861206,0.49573373794555664,4.031677722930908
1716557803492577300,3.571577392578125,0.2942523956298828,1.7456717491149902,4.255797386169434
1716557803502709000,3.581708984375,-3.083446502685547,3.146289348602295,5.561306953430176
1716557803512841000,3.591841064453125,-9.021685600280762,4.990279674530029,7.798362731933594
1716557803522972700,3.60197265625,-17.961896896362305,6.924935817718506,9.070181846618652
1716557803533104400,3.6121044921875,-16.77357292175293,5.800598621368408,9.096800804138184
1716557803543236400,3.622236328125,-12.173518180847168,3.000195026397705,5.972013473510742
1716557803553368000,3.6323681640625,-8.479333877563477,1.4252419471740723,2.2349891662597656
1716557803563500000,3.6425,-4.746554374694824,1.669778823852539,-0.3814535140991211
1716557803573631700,3.6526318359375,-1.772706151008606,2.405369281768799,-1.7674779891967773
1716557803583763700,3.662763671875,0.18286800384521484,2.919867992401123,-2.0278310775756836
1716557803593895400,3.6728955078125,0.9445239305496216,3.4523253440856934,-2.1044387817382812
1716557803604027400,3.68302734375,-1.0531529188156128,3.56301212310791,-6.0283308029174805
1716557803614159000,3.6931591796875,-3.783947467803955,2.9224424362182617,-9.163220405578613
1716557803624291000,3.703291015625,-4.103935241699219,2.0874319076538086,-10.68925666809082
1716557803634422800,3.7134228515625,-4.767182350158691,1.7824511528015137,-11.118780136108398
1716557803644554800,3.7235546875,-7.060877323150635,1.7736659049987793,-10.128093719482422
1716557803654686500,3.7336865234375,-8.910124778747559,1.7224555015563965,-6.93062162399292
1716557803664818400,3.743818359375,-7.840950965881348,2.389504909515381,-6.784050464630127
1716557803674950100,3.7539501953125,-3.889887571334839,3.2215304374694824,-3.1585564613342285
1716557803685082000,3.76408203125,-1.4056686162948608,3.889183521270752,-0.05011463165283203
1716557803695213800,3.7742138671875,-0.16878774762153625,3.726142406463623,2.155418872833252
1716557803705345800,3.784345703125,-0.0011435747146606445,2.879532814025879,4.894465446472168
1716557803715477500,3.7944775390625,-2.4606258869171143,-0.657534122467041,9.953710556030273
1716557803725609500,3.804609375,-5.09993314743042,-1.8220319747924805,13.762594223022461
1716557803735741200,3.8147412109375,-6.761940002441406,0.24127483367919922,12.581642150878906
1716557803745873200,3.824873046875,-7.1292290687561035,0.5683488845825195,8.038954734802246
1716557803756004900,3.8350048828125,-7.2509870529174805,-0.35564565658569336,5.332612991333008
1716557803766136800,3.84513671875,-5.234193325042725,-0.9522557258605957,4.250311851501465
1716557803776268500,3.8552685546875,-1.0913877487182617,-0.9453744888305664,4.542656898498535
1716557803786400500,3.865400390625,3.3213040828704834,-0.9901118278503418,4.525087833404541
1716557803796532200,3.8755322265625,3.6714677810668945,-1.845829963684082,3.7084031105041504
1716557803806664200,3.885664306640625,6.422975540161133,-5.129009246826172,0.6515011787414551
1716557803816796000,3.8957958984375,5.777476787567139,-3.84645938873291,-1.6546502113342285
1716557803826927900,3.905927978515625,2.9405996799468994,-3.6160006523132324,-0.07733154296875
1716557803837059600,3.9160595703125,2.129607677459717,-2.299699306488037,4.158651351928711
1716557803847191600,3.926191650390625,0.6009963750839233,-4.566508769989014,5.220495223999023
1716557803857323300,3.9363232421875,4.2687506675720215,-7.688593864440918,0.946723461151123
1716557803867455000,3.946455078125,1.3142050504684448,-10.024017333984375,-4.16522741317749
1716557803877587000,3.9565869140625,3.858755588531494,-7.7532219886779785,-4.786416530609131
1716557803887718700,3.96671875,8.237951278686523,-6.037562847137451,-4.740297317504883
1716557803897850600,3.9768505859375,6.143922328948975,-6.005562782287598,-4.637330055236816
1716557803907982300,3.986982421875,4.606720447540283,-4.813615322113037,-2.476902484893799
1716557803918114300,3.9971142578125,4.20090389251709,-4.271823883056641,-2.9522271156311035
1716557803928246000,4.00724609375,3.4379451274871826,-3.138251304626465,-3.339844226837158
1716557803938378000,4.0173779296875,2.525151491165161,-3.0526156425476074,-2.765904426574707
1716557803948509700,4.027509765625,2.3378398418426514,-2.8174500465393066,-1.7755656242370605
1716557803958641700,4.0376416015625,1.994887351989746,-3.2852301597595215,-2.461287498474121
1716557803968773400,4.0477734375,0.9652851819992065,-3.623819351196289,-1.2238807678222656
1716557803978905300,4.0579052734375,-0.4448091685771942,-3.4725518226623535,-2.47467041015625
1716557803989037000,4.068037109375,-2.2474801540374756,-0.6230683326721191,-1.2972149848937988
1716557803999169000,4.0781689453125,0.7847893238067627,1.4030470848083496,3.3358120918273926
1716557804009300700,4.08830078125,1.3151681423187256,2.203530788421631,-6.596030235290527
1716557804019432700,4.0984326171875,-2.452939987182617,5.109769344329834,-8.560857772827148
1716557804029564400,4.108564453125,-3.052663803100586,5.838788032531738,-9.387601852416992
1716557804039696400,4.1186962890625,0.7861654162406921,2.092294692993164,-8.217765808105469
1716557804049828000,4.128828125,6.612788677215576,-0.12863445281982422,-6.305315017700195
1716557804059960000,4.1389599609375,3.1040027141571045,0.9238948822021484,-2.6006293296813965
1716557804070091800,4.149091796875,1.0668129920959473,2.7565174102783203,-2.425410747528076
1716557804080223700,4.1592236328125,1.6602859497070312,2.491312026977539,0.29784250259399414
1716557804090355500,4.16935546875,1.3721463680267334,1.062870979309082,2.382749080657959
1716557804100487400,4.1794873046875,3.266885757446289,-0.40484619140625,2.458401679992676
1716557804110619100,4.189619140625,2.2533226013183594,-0.15180301666259766,1.1602036952972412
1716557804120751000,4.199751220703125,1.9944837093353271,-0.9596433639526367,1.2345104217529297
1716557804130852400,4.209852294921875,1.7292046546936035,-1.544661521911621,2.5258920192718506
1716557804140984000,4.219984130859375,-0.02631831169128418,-0.4814882278442383,3.316668748855591
1716557804151116000,4.230115966796875,0.318331241607666,0.599400520324707,4.3042192459106445
1716557804161247700,4.240247802734375,-0.7155762910842896,0.2881040573120117,6.027976036071777
1716557804171379700,4.250379638671875,-0.7079615592956543,-0.06876754760742188,5.932810306549072
1716557804181511400,4.260511474609375,-2.021312713623047,0.3455381393432617,4.973324775695801
1716557804191643400,4.270643310546875,-2.8226230144500732,-0.8989629745483398,6.011232376098633
1716557804201775000,4.280775146484375,-2.937507390975952,-1.1198711395263672,4.827147960662842
1716557804211907000,4.290906982421875,-2.908339262008667,-1.9655170440673828,3.162097454071045
1716557804222038800,4.301038818359375,-3.483356237411499,-1.9455366134643555,3.8213605880737305
1716557804232170800,4.311170654296875,-3.568525552749634,-2.025918960571289,2.8611793518066406
1716557804242302500,4.321302490234375,-2.9583256244659424,-1.7544059753417969,-0.0390394926071167
1716557804252434400,4.331434326171875,-2.248690128326416,-1.278834342956543,0.1854259967803955
1716557804262566100,4.341566162109375,-2.305389165878296,-0.6927108764648438,0.27863359451293945
1716557804272698000,4.351697998046875,-2.6437997817993164,0.40026283264160156,1.8580745458602905
1716557804282829800,4.361829833984375,-1.8354473114013672,0.7814712524414062,1.9987272024154663
1716557804292961800,4.3719619140625,-0.7145349979400635,0.6310501098632812,1.3955013751983643
1716557804303093500,4.382093505859375,0.002825021743774414,0.6887741088867188,1.9464813470840454
1716557804313225500,4.3922255859375,0.002824544906616211,0.782069206237793,3.4681649208068848
1716557804323357200,4.402357177734375,-1.0008175373077393,0.7552051544189453,3.4000473022460938
1716557804333489200,4.4124892578125,-2.236807107925415,0.08903789520263672,0.9539049863815308
1716557804343620900,4.422620849609375,-2.6956369876861572,-1.3634109497070312,0.9153172969818115
1716557804353752600,4.432752685546875,-3.0033414363861084,-3.324162483215332,1.405106544494629
1716557804363884500,4.442884521484375,-2.7138664722442627,-4.171834945678711,3.064523935317993
1716557804374016300,4.453016357421875,-1.903160572052002,-3.1730384826660156,4.457319259643555
1716557804384148200,4.463148193359375,-0.9874439239501953,-1.5902099609375,4.915152549743652
1716557804394280000,4.473280029296875,-0.24937939643859863,-0.5982904434204102,5.069568634033203
1716557804404412000,4.483411865234375,-0.3176431655883789,-0.9440860748291016,6.257411956787109
1716557804414543600,4.493543701171875,-0.6504855155944824,-1.2852659225463867,7.8167338371276855
1716557804424675600,4.503675537109375,-1.9320309162139893,-1.9374332427978516,9.033967971801758
1716557804434807300,4.513807373046875,-3.484929084777832,-0.9261445999145508,9.61915397644043
1716557804444939300,4.523939208984375,-3.680697441101074,2.105958938598633,9.085139274597168
1716557804455071000,4.534071044921875,2.839738607406616,-1.0352497100830078,10.022876739501953
1716557804465203000,4.544202880859375,-6.576476097106934,-1.6466350555419922,5.351964950561523
1716557804475334700,4.554334716796875,-4.664929389953613,-3.2156810760498047,4.975648880004883
1716557804485466600,4.564466552734375,-3.571979522705078,-6.160178184509277,5.166542053222656
1716557804495598300,4.574598388671875,0.6528278589248657,-7.219362258911133,-2.80001163482666
1716557804505730300,4.584730224609375,3.51231050491333,-9.24797534942627,-7.274913311004639
1716557804515862000,4.594862060546875,5.14158296585083,-12.280282020568848,-9.616201400756836
1716557804525994000,4.604993896484375,1.670753002166748,-10.6161527633667,-7.224525451660156
1716557804536125700,4.615125732421875,1.0810168981552124,-7.858511924743652,-4.66597843170166
1716557804546257700,4.625257568359375,1.015574336051941,-4.352555274963379,-1.5233235359191895
1716557804556389400,4.635389404296875,0.1720302402973175,-2.5881481170654297,-1.6507625579833984
1716557804566521300,4.645521240234375,-1.2824838161468506,-1.6897048950195312,-0.06714296340942383
1716557804576653000,4.655653076171875,-0.6770765781402588,-0.8496437072753906,-0.568941593170166
1716557804586785000,4.665784912109375,-0.4252857565879822,-1.2818384170532227,0.7016739845275879
1716557804596916700,4.675916748046875,-1.3852386474609375,-2.021906852722168,2.3449487686157227
1716557804607048700,4.686048583984375,-0.9822471141815186,-1.530024528503418,2.0726332664489746
1716557804617180400,4.696180419921875,-0.41315412521362305,-0.6706342697143555,1.2008094787597656
1716557804627312400,4.7063125,-0.4610704183578491,-2.6111698150634766,0.8679299354553223
1716557804637444000,4.716444091796875,1.0716984272003174,-3.690378189086914,0.3244767189025879
1716557804647576000,4.726576171875,2.123722791671753,-3.3836593627929688,-1.8542861938476562
1716557804657707800,4.736707763671875,3.551680088043213,-2.4377918243408203,-2.2888197898864746
1716557804667839700,4.74683984375,4.154491424560547,-0.8607158660888672,-2.369479179382324
1716557804677971500,4.756971435546875,4.3738908767700195,0.5558156967163086,-2.0706405639648438
1716557804688103200,4.767103271484375,5.295412063598633,1.4307317733764648,-1.7352876663208008
1716557804698235100,4.777235107421875,4.741077899932861,2.1754865646362305,-1.1553609371185303
1716557804708366800,4.787366943359375,4.454583168029785,2.1125879287719727,-1.0171363353729248
1716557804718498800,4.797498779296875,4.590640068054199,1.8693151473999023,-0.8042197227478027
1716557804728630500,4.807630615234375,4.6314921379089355,1.720414161682129,-0.694720983505249
1716557804738762500,4.817762451171875,4.95922327041626,1.5173559188842773,-0.5360846519470215
1716557804748894200,4.827894287109375,5.390162467956543,1.7376365661621094,-0.2619791030883789
1716557804759026200,4.838026123046875,5.404805660247803,1.5437679290771484,-0.7317695617675781
1716557804769158000,4.848157958984375,5.388963222503662,1.6168899536132812,-0.6726336479187012
1716557804779289900,4.858289794921875,5.6090521812438965,1.8647966384887695,-0.9482448101043701
1716557804789421600,4.868421630859375,5.338639259338379,2.49301815032959,-1.3856121301651
1716557804799553500,4.878553466796875,5.0920538902282715,3.2860145568847656,-1.7669806480407715
1716557804809685200,4.888685302734375,4.844837665557861,3.776895523071289,-2.519618272781372
1716557804819817200,4.898817138671875,3.9089837074279785,4.241891860961914,-2.3115129470825195
1716557804829949000,4.908948974609375,2.805572509765625,4.792403221130371,-0.3607001304626465
1716557804840081000,4.919080810546875,1.606156826019287,3.217617988586426,0.0411982536315918
1716557804850212600,4.929212646484375,0.5511565208435059,2.7761917114257812,0.28993797302246094
1716557804860344600,4.939344482421875,-0.7666263580322266,1.2420177459716797,0.41435229778289795
1716557804870476300,4.949476318359375,-2.072328567504883,-0.331268310546875,-1.4950854778289795
1716557804880608300,4.959608154296875,-2.247952938079834,-0.7420635223388672,-2.833012104034424
1716557804890740000,4.969739990234375,-2.450322151184082,-0.5521306991577148,-3.5377304553985596
1716557804900872000,4.979871826171875,-3.081632614135742,-0.7710819244384766,-5.265984535217285
1716557804911003600,4.990003662109375,-4.314538478851318,-0.8865079879760742,-7.431741237640381
1716557804921135600,5.000135498046875,-6.5774827003479,-0.5063295364379883,-6.57904052734375
1716557804931236900,5.01023681640625,-8.868825912475586,0.3514556884765625,-1.4061541557312012
1716557804941368600,5.02036865234375,-9.964065551757812,0.3661680221557617,-1.2803113460540771
1716557804951500500,5.03050048828125,-8.92229175567627,0.3629436492919922,3.4542927742004395
1716557804961632300,5.04063232421875,-6.342858791351318,-0.36539363861083984,6.963812351226807
1716557804971764200,5.05076416015625,-3.455512046813965,-1.4650144577026367,8.158106803894043
1716557804981896000,5.06089599609375,-2.3154850006103516,-1.6392107009887695,6.478694915771484
1716557804992028000,5.07102783203125,-1.725226879119873,-1.3603630065917969,0.8998836278915405
1716557805002159600,5.08115966796875,-1.6030125617980957,-1.1753931045532227,-1.151917815208435
1716557805012291600,5.09129150390625,-2.349440574645996,-0.17788314819335938,-1.1835988759994507
1716557805022423300,5.10142333984375,-2.3819708824157715,1.239567756652832,0.32869982719421387
1716557805032555300,5.11155517578125,-2.760404109954834,2.468743324279785,1.4695584774017334
1716557805042687000,5.12168701171875,-4.071753025054932,1.829458236694336,1.9324345588684082
1716557805052819000,5.13181884765625,-6.578991413116455,-2.9562158584594727,1.3807224035263062
1716557805062950700,5.14195068359375,-7.963274002075195,-9.605579376220703,1.372251272201538
1716557805073082600,5.15208251953125,-1.562692642211914,-15.036443710327148,3.320127010345459
1716557805083214300,5.16221435546875,8.567312240600586,-19.103212356567383,7.125407695770264
1716557805093346300,5.17234619140625,7.309129238128662,-19.23574447631836,7.50811767578125
1716557805103478000,5.18247802734375,2.254025459289551,-14.241765975952148,-3.379103660583496
1716557805113610000,5.19260986328125,1.2947402000427246,-6.197254180908203,-8.225001335144043
1716557805123741700,5.20274169921875,3.9020371437072754,1.120875358581543,-11.093025207519531
1716557805133873700,5.212873779296875,5.619612216949463,6.335897445678711,-13.635293960571289
1716557805144005400,5.22300537109375,5.142302513122559,8.533071517944336,-15.637710571289062
1716557805154137300,5.233137451171875,10.095376968383789,8.230634689331055,-13.756089210510254
1716557805164269000,5.24326904296875,17.950084686279297,7.156023025512695,-7.972329139709473
1716557805174401000,5.253401123046875,19.793136596679688,4.4113569259643555,-4.399389743804932
1716557805184532700,5.26353271484375,15.409525871276855,0.16741275787353516,-4.021756172180176
1716557805194664400,5.27366455078125,8.190109252929688,-4.131936073303223,-4.567758083343506
1716557805204796400,5.28379638671875,0.14955472946166992,-8.031140327453613,-4.4083476066589355
1716557805214928100,5.29392822265625,-4.44033145904541,-9.945364952087402,-0.43480128049850464
1716557805225060000,5.30406005859375,-1.0886995792388916,-9.670836448669434,-0.2777232527732849
1716557805235191800,5.31419189453125,4.638576030731201,-7.283210754394531,5.736431121826172
1716557805245323800,5.32432373046875,6.163540840148926,-3.2788543701171875,8.870096206665039
1716557805255455500,5.33445556640625,3.4994542598724365,-0.9459171295166016,7.975274562835693
1716557805265587500,5.34458740234375,0.2090897560119629,0.12446308135986328,4.9300456047058105
1716557805275719200,5.35471923828125,-1.770312786102295,0.7501068115234375,0.6558352708816528
1716557805285851100,5.36485107421875,-2.4058008193969727,1.2010374069213867,-0.7225419282913208
1716557805295982800,5.37498291015625,-2.1154556274414062,1.4871883392333984,-1.7844845056533813
1716557805306114800,5.38511474609375,-1.6997933387756348,1.6990423202514648,-2.2224912643432617
1716557805316246500,5.39524658203125,-1.4465657472610474,1.9103813171386719,-1.9962763786315918
1716557805326378500,5.40537841796875,-1.2537704706192017,1.9401884078979492,-1.136911392211914
1716557805336510200,5.41551025390625,-1.150807499885559,1.7233772277832031,0.18068838119506836
1716557805346642200,5.42564208984375,-1.0086385011672974,1.3855152130126953,1.5818582773208618
1716557805356774000,5.43577392578125,-1.129960536956787,0.9708662033081055,1.6740165948867798
1716557805366905900,5.44590576171875,-1.5806578397750854,0.7220602035522461,2.716547966003418
1716557805377037600,5.45603759765625,-1.9007048606872559,0.8364906311035156,3.438457727432251
1716557805387169500,5.46616943359375,-1.830607533454895,1.0416193008422852,3.8976643085479736
1716557805397301200,5.47630126953125,-1.3379696607589722,1.0135040283203125,4.025130748748779
1716557805407433200,5.48643310546875,-0.7609291076660156,0.6795320510864258,3.8129990100860596
1716557805417565000,5.49656494140625,-0.4421030282974243,0.3056983947753906,3.4097840785980225
1716557805427697000,5.50669677734375,-0.6360127329826355,0.2000141143798828,2.400644540786743
1716557805437828600,5.51682861328125,-1.4337013959884644,0.40924549102783203,1.8965693712234497
1716557805447960600,5.526960693359375,-2.32263445854187,0.6962909698486328,1.128273606300354
1716557805458092300,5.53709228515625,-2.9790799617767334,0.9849920272827148,0.40925508737564087
1716557805468224300,5.547224365234375,-3.4668924808502197,1.2856807708740234,-0.18627424538135529
1716557805478356000,5.55735595703125,-3.5652148723602295,1.3701257705688477,-0.6687769889831543
1716557805488488000,5.567488037109375,-2.9883921146392822,1.3158683776855469,-0.9420052766799927
1716557805498619600,5.57761962890625,-2.0428059101104736,1.266190528869629,-0.7744589447975159
1716557805508751400,5.58775146484375,-1.2953336238861084,1.253671646118164,-0.28529614210128784
1716557805518883300,5.59788330078125,-1.0523369312286377,1.3156194686889648,0.2720176875591278
1716557805529015000,5.60801513671875,-1.3887971639633179,1.3771724700927734,0.9633369445800781
1716557805539147000,5.61814697265625,-1.7683918476104736,1.2450933456420898,1.3514844179153442
1716557805549278700,5.62827880859375,-1.690147876739502,0.8650417327880859,1.3877580165863037
1716557805559410700,5.63841064453125,-1.2141034603118896,0.3665046691894531,1.5054118633270264
1716557805569542400,5.64854248046875,-1.0336881875991821,0.2307119369506836,2.12669038772583
1716557805579674400,5.65867431640625,-1.4322112798690796,0.44043827056884766,2.855191946029663
1716557805589806000,5.66880615234375,-1.9658279418945312,0.06635570526123047,3.1247549057006836
1716557805599938000,5.67893798828125,-2.191892623901367,-0.9496326446533203,2.974238157272339
1716557805610069800,5.68906982421875,-2.218423366546631,-1.9290838241577148,2.5612335205078125
1716557805620201700,5.69920166015625,-2.445222854614258,-2.402841567993164,1.8149800300598145
1716557805630333400,5.70933349609375,-3.060168981552124,-2.4895095825195312,0.7260597944259644
1716557805640465400,5.71946533203125,-3.6845598220825195,-2.2684831619262695,-0.3597233295440674
1716557805650597000,5.72959716796875,-4.064136981964111,-1.888258934020996,-0.8685807585716248
1716557805660729000,5.73972900390625,-3.818460464477539,-2.0219335556030273,-0.38386207818984985
1716557805670860800,5.74986083984375,-3.055727005004883,-2.929798126220703,1.220495581626892
1716557805680992800,5.75999267578125,-2.2285001277923584,-3.666060447692871,3.712233066558838
1716557805691124500,5.77012451171875,-1.1484373807907104,-3.495664596557617,3.707622528076172
1716557805701256400,5.78025634765625,-0.20875370502471924,-2.8792972564697266,6.327276229858398
1716557805711388200,5.79038818359375,-0.008760929107666016,-3.0777053833007812,7.579803943634033
1716557805721520000,5.80052001953125,-0.8746922016143799,-3.966536521911621,7.1540913581848145
1716557805731651800,5.81065185546875,-2.840102434158325,-4.989696502685547,6.114758014678955
1716557805741783800,5.82078369140625,-5.209057807922363,-5.591538429260254,3.0860116481781006
1716557805751915500,5.83091552734375,-6.131861209869385,-5.266633033752441,0.6396415829658508
1716557805762047500,5.841047607421875,-4.98576545715332,-4.426704406738281,-2.7750930786132812
1716557805772179200,5.85117919921875,-2.5355782508850098,-3.610325813293457,-6.536240577697754
1716557805782311200,5.861311279296875,0.3795124888420105,-3.2103404998779297,-9.205267906188965
1716557805792412400,5.871412353515625,2.3378562927246094,-3.6362133026123047,-9.7581148147583
1716557805802544000,5.881544189453125,3.1944103240966797,-4.394102096557617,-8.271333694458008
1716557805812676000,5.891676025390625,3.5649898052215576,-5.352123260498047,-5.852294921875
1716557805822807800,5.901807861328125,3.2473256587982178,-5.860039710998535,-3.094297409057617
1716557805832939800,5.911939697265625,2.1677541732788086,-5.632495880126953,-0.06236240267753601
1716557805843071500,5.922071533203125,0.8209450244903564,-5.115717887878418,-0.0774570107460022
1716557805853203500,5.932203369140625,-0.446966290473938,-4.544917106628418,2.75349497795105
1716557805863335200,5.942335205078125,-1.7162388563156128,-4.193253517150879,3.868429183959961
1716557805873467100,5.952467041015625,-1.8567644357681274,-4.296782493591309,3.421581268310547
1716557805883598800,5.962598876953125,-1.1317905187606812,-3.8404293060302734,-0.13625454902648926
1716557805893730800,5.972730712890625,-0.6395688056945801,-3.0353622436523438,-1.3277058601379395
1716557805903862500,5.982862548828125,0.2994208335876465,-2.107987403869629,-1.768038272857666
1716557805913994500,5.992994384765625,1.932389259338379,-1.2751426696777344,-1.6037561893463135
1716557805924126200,6.003126220703125,3.116849899291992,-0.6208391189575195,-1.4789947271347046
1716557805934258200,6.013258056640625,3.233020067214966,-0.09192657470703125,-1.6015561819076538
1716557805944390000,6.023389892578125,2.8844175338745117,0.43260669708251953,-1.6311981678009033
1716557805954521900,6.03352197265625,2.844770908355713,0.8756694793701172,-1.3367797136306763
1716557805964653600,6.043653564453125,2.981067419052124,1.1915321350097656,-0.9235715866088867
1716557805974785500,6.05378564453125,3.594285249710083,1.652090072631836,-0.40181946754455566
1716557805984917200,6.063917236328125,4.336464881896973,2.145846366882324,-0.20451170206069946
1716557805995049200,6.07404931640625,4.8269853591918945,2.581439971923828,-0.0892438292503357
1716557806005181000,6.084180908203125,5.140742778778076,2.9807615280151367,0.05384647846221924
1716557806015312600,6.094312744140625,5.392996788024902,3.1992292404174805,0.03791964054107666
1716557806025444600,6.104444580078125,5.636011123657227,3.2424354553222656,-0.09952181577682495
1716557806035576300,6.114576416015625,5.6775031089782715,3.1367712020874023,0.08798348903656006
1716557806045708300,6.124708251953125,5.631711483001709,2.923651695251465,0.26521944999694824
1716557806055840000,6.134840087890625,5.437399864196777,2.7171497344970703,0.2236846685409546
1716557806065972000,6.144971923828125,5.156660556793213,2.700812339782715,0.012316763401031494
1716557806076103700,6.155103759765625,4.925088882446289,2.9350175857543945,-0.3359590172767639
1716557806086235600,6.165235595703125,4.686956405639648,3.3833189010620117,-0.8945777416229248
1716557806096367400,6.175367431640625,4.32729434967041,3.9612436294555664,-1.4290566444396973
1716557806106499300,6.185499267578125,3.6613879203796387,4.439846038818359,-1.8040337562561035
1716557806116631000,6.195631103515625,2.6968636512756348,4.754105567932129,-1.8242539167404175
1716557806126763000,6.205762939453125,1.6862783432006836,4.86772346496582,-1.510363221168518
1716557806136894700,6.215894775390625,0.7009835243225098,4.807682037353516,-1.198404312133789
1716557806147026700,6.226026611328125,-0.44313812255859375,4.479726791381836,-1.1288015842437744
1716557806157158400,6.236158447265625,-1.7447590827941895,3.817079544067383,-1.2727081775665283
1716557806167290400,6.246290283203125,-3.3269615173339844,2.8545894622802734,-1.3463544845581055
1716557806177422000,6.256422119140625,-5.47861385345459,1.3759164810180664,-1.3178149461746216
1716557806187554000,6.266553955078125,-7.452188968658447,-0.630558967590332,-1.4240524768829346
1716557806197685800,6.276685791015625,-7.729659080505371,-2.66424560546875,-1.8233344554901123
1716557806207817700,6.286817626953125,-6.958092212677002,-4.169498443603516,-0.5969046354293823
1716557806217949400,6.296949462890625,-6.246266841888428,-5.357158660888672,-0.5062302350997925
1716557806228081400,6.307081298828125,-5.692573070526123,-5.74415397644043,2.8978967666625977
1716557806238213000,6.317213134765625,-4.924250602722168,-4.833966255187988,6.402493000030518
1716557806248345000,6.327344970703125,-4.098565578460693,-3.0163631439208984,7.5182647705078125
1716557806258476800,6.337476806640625,-3.4068946838378906,-0.8661088943481445,5.795690059661865
1716557806268608800,6.34760888671875,-3.0552878379821777,1.007613182067871,0.9632755517959595
1716557806278740500,6.357740478515625,-3.108898639678955,2.1088390350341797,-0.7316779494285583
1716557806288872400,6.36787255859375,-3.5050454139709473,2.326327323913574,-1.5110876560211182
1716557806299004200,6.378004150390625,-2.1954989433288574,1.7537717819213867,-1.531835913658142
1716557806309136100,6.38813623046875,-0.694852352142334,-0.035437583923339844,-1.2694313526153564
1716557806319267800,6.398267822265625,-3.59879732131958,-4.368279457092285,-0.790826141834259
1716557806329399600,6.408399658203125,-8.345430374145508,-9.99914264678955,1.6309452056884766
1716557806339531500,6.418531494140625,-5.57875394821167,-14.828625679016113,1.4145946502685547
1716557806349663200,6.428663330078125,4.804586410522461,-15.879919052124023,4.615515232086182
1716557806359795200,6.438795166015625,9.389616012573242,-10.94873046875,5.533943176269531
1716557806369927000,6.448927001953125,6.422614097595215,-4.5547380447387695,-4.558497428894043
1716557806380059000,6.459058837890625,1.3546514511108398,0.636387825012207,-10.021248817443848
1716557806390190600,6.469190673828125,0.11987638473510742,4.273316383361816,-12.506871223449707
1716557806400322600,6.479322509765625,2.921746253967285,6.205021858215332,-12.657855033874512
1716557806410454300,6.489454345703125,5.678600311279297,6.13392448425293,-9.80648422241211
1716557806420586200,6.499586181640625,10.940533638000488,4.312366485595703,-4.7860565185546875
1716557806430718000,6.509718017578125,17.824310302734375,2.1043100357055664,0.9146120548248291
1716557806440850000,6.519849853515625,16.643709182739258,-1.3321905136108398,0.9181355237960815
1716557806450981600,6.529981689453125,9.929311752319336,-5.346053123474121,1.9510728120803833
1716557806461113600,6.540113525390625,2.1878719329833984,-8.540020942687988,2.2402501106262207
1716557806471245300,6.550245361328125,-4.409380912780762,-9.992154121398926,2.337955951690674
1716557806481377300,6.560377197265625,-3.915691375732422,-8.16174030303955,3.3567750453948975
1716557806491509000,6.570509033203125,1.6407139301300049,-4.214890480041504,4.055612564086914
1716557806501641000,6.580640869140625,5.467142105102539,-1.2296276092529297,1.5933743715286255
1716557806511772700,6.590772705078125,5.77161979675293,0.6427345275878906,0.47018083930015564
1716557806521904600,6.600904541015625,3.8138251304626465,1.4343996047973633,-0.28066325187683105
1716557806532036400,6.611036376953125,1.1969761848449707,1.5408248901367188,-1.398301124572754
1716557806542168300,6.621168212890625,-0.6671154499053955,1.4492645263671875,-2.3192203044891357
1716557806552300000,6.631300048828125,-1.2200467586517334,1.3106842041015625,-2.8210344314575195
1716557806562432000,6.641431884765625,-0.9061977863311768,1.0366449356079102,-2.945131540298462
1716557806572563700,6.651563720703125,-0.4458622932434082,0.7521991729736328,-2.8456130027770996
1716557806582695700,6.66169580078125,-0.2592308521270752,0.7023544311523438,-2.6296024322509766
1716557806592827400,6.671827392578125,-0.14822769165039062,0.829035758972168,-1.8388698101043701
1716557806602959400,6.68195947265625,-0.08396470546722412,1.014638900756836,-0.7897711992263794
1716557806613091000,6.692091064453125,-0.24667751789093018,1.1491851806640625,0.07947114109992981
1716557806623223000,6.70222314453125,-0.5620541572570801,1.1413908004760742,0.595476508140564
1716557806633354800,6.712354736328125,-0.8999735116958618,0.9405555725097656,0.7574378252029419
1716557806643486500,6.722486572265625,-1.2527825832366943,0.8260097503662109,0.950061559677124
1716557806653618400,6.732618408203125,-1.4566526412963867,0.9171113967895508,1.4784777164459229
1716557806663750100,6.742750244140625,-1.2502697706222534,1.0637693405151367,2.113729476928711
1716557806673882000,6.752882080078125,-0.6469168663024902,1.0757732391357422,2.6032938957214355
1716557806684013800,6.763013916015625,-0.038322821259498596,0.8989953994750977,2.7990856170654297
1716557806694115300,6.773115234375,0.05973374843597412,0.557826042175293,2.8722870349884033
1716557806704247000,6.7832470703125,-0.57108473777771,0.37028980255126953,2.7808616161346436
1716557806714379000,6.79337890625,-1.3956760168075562,0.5057029724121094,2.550358295440674
1716557806724510700,6.8035107421875,-1.9936671257019043,0.8178472518920898,2.186492919921875
1716557806734642700,6.813642578125,-2.3553590774536133,1.0652790069580078,1.7482643127441406
1716557806744774400,6.8237744140625,-2.6084985733032227,1.1645965576171875,1.3486052751541138
1716557806754906400,6.83390625,-2.5892934799194336,1.1831588745117188,1.0516903400421143
1716557806765038000,6.8440380859375,-2.3423101902008057,1.2262687683105469,0.9022691249847412
1716557806775170000,6.854170166015625,-1.9522771835327148,1.1697635650634766,0.774357795715332
1716557806785301800,6.8643017578125,-1.537489414215088,0.8344640731811523,0.7035801410675049
1716557806795433700,6.874433837890625,-1.183363437652588,0.3566131591796875,0.6634970903396606
1716557806805565400,6.8845654296875,-1.148604154586792,-0.01792144775390625,0.7117513418197632
1716557806815697400,6.894697509765625,-1.5093573331832886,-0.21699142456054688,0.714022159576416
1716557806825829000,6.9048291015625,-2.0318779945373535,-0.23189544677734375,0.7305405139923096
1716557806835960800,6.9149609375,-2.137869358062744,-0.21603107452392578,0.936385989189148
1716557806846092800,6.9250927734375,-1.7106194496154785,-0.43329334259033203,1.5601762533187866
1716557806856224500,6.935224609375,-1.2870820760726929,-0.7057876586914062,2.4042844772338867
1716557806866356500,6.9453564453125,-1.385328769683838,-1.0639209747314453,2.8925275802612305
1716557806876488200,6.95548828125,-1.730985164642334,-1.5022706985473633,2.942819118499756
1716557806886620200,6.9656201171875,-2.0043981075286865,-1.7824201583862305,2.749767303466797
1716557806896751900,6.975751953125,-2.4584388732910156,-2.0279226303100586,2.4188947677612305
1716557806906883800,6.9858837890625,-2.891963005065918,-2.311600685119629,2.116140365600586
1716557806917015600,6.996015625,-2.9183549880981445,-2.451610565185547,1.9189478158950806
1716557806927147500,7.0061474609375,-2.5751519203186035,-3.0139245986938477,1.7743595838546753
1716557806937279200,7.016279296875,-2.027346611022949,-3.586319923400879,2.136747360229492
1716557806947411200,7.0264111328125,-1.3908530473709106,-3.774136543273926,2.983030319213867
1716557806957543000,7.03654296875,-0.7252392768859863,-3.577943801879883,3.9017670154571533
1716557806967675000,7.0466748046875,-0.010854721069335938,-3.3954410552978516,3.819283962249756
1716557806977806600,7.056806640625,0.6522363424301147,-3.404995918273926,4.353763580322266
1716557806987938600,7.0669384765625,0.3455169200897217,-4.135066986083984,4.4417619705200195
1716557806998070300,7.0770703125,-0.7359969615936279,-5.166008949279785,2.465200901031494
1716557807008202200,7.0872021484375,-2.804809808731079,-5.2838544845581055,0.5496013164520264
1716557807018334000,7.097333984375,-5.827603816986084,-4.405478477478027,-2.1947216987609863
1716557807028466000,7.1074658203125,-8.276571273803711,-3.358229637145996,-4.867406845092773
1716557807038597600,7.11759765625,-7.86343240737915,-2.5259695053100586,-6.343372344970703
1716557807048729600,7.1277294921875,-4.356093406677246,-1.7589473724365234,-6.6469926834106445
1716557807058861300,7.137861328125,-0.762621283531189,-1.4706010818481445,-6.513285160064697
1716557807068993300,7.1479931640625,0.9606550335884094,-2.083711624145508,-5.772243499755859
1716557807079125000,7.158125,1.458614468574524,-3.39993953704834,-4.6431121826171875
1716557807089257000,7.168257080078125,2.2023677825927734,-4.736782073974609,-3.3112306594848633
1716557807099388700,7.178388671875,3.0180327892303467,-5.556332588195801,-2.014343023300171
1716557807109520600,7.188520751953125,2.8668527603149414,-5.498083114624023,-1.2316110134124756
1716557807119652400,7.19865234375,2.5481724739074707,-4.79694938659668,-1.4415936470031738
1716557807129784300,7.208784423828125,1.9633835554122925,-4.062335014343262,-1.542802333831787
1716557807139916000,7.218916015625,0.993213415145874,-3.9850454330444336,-1.4564605951309204
1716557807150047700,7.2290478515625,-0.2576425075531006,-3.827364921569824,-1.6615180969238281
1716557807160179700,7.2391796875,-1.0548253059387207,-3.0658750534057617,-1.318983554840088
1716557807170311400,7.2493115234375,-1.5089936256408691,-2.363859176635742,-1.2407692670822144
1716557807180443400,7.259443359375,-0.6018240451812744,-1.6202049255371094,-0.8326747417449951
1716557807190575000,7.2695751953125,0.8398547172546387,-0.8272972106933594,-0.13574689626693726
1716557807200707000,7.27970703125,2.22015643119812,-0.38587188720703125,0.09154647588729858
1716557807210838800,7.2898388671875,3.2157773971557617,-0.06800270080566406,0.0008766055107116699
1716557807220970800,7.299970703125,3.2027370929718018,0.3158607482910156,0.024666428565979004
1716557807231102500,7.3101025390625,3.3788211345672607,0.6993083953857422,0.10944235324859619
1716557807241234400,7.320234375,3.466385841369629,0.9445953369140625,0.5045652389526367
1716557807251366100,7.3303662109375,3.8983492851257324,1.1646728515625,0.8595264554023743
1716557807261498000,7.340498046875,4.533394813537598,1.4540109634399414,1.0278428792953491
1716557807271629800,7.3506298828125,5.148987770080566,1.7939081192016602,1.0575672388076782
1716557807281761800,7.36076171875,5.601447105407715,2.1091537475585938,0.8607769012451172
1716557807291893500,7.3708935546875,5.77939510345459,2.475111961364746,0.4749263525009155
1716557807302025500,7.381025390625,5.817768096923828,2.819899559020996,0.07978719472885132
1716557807312157200,7.3911572265625,5.83796501159668,3.226205825805664,-0.23353707790374756
1716557807322289200,7.4012890625,5.657722473144531,3.6736345291137695,-0.5074707269668579
1716557807332420900,7.4114208984375,5.245349884033203,4.192960739135742,-0.7298406958580017
1716557807342552800,7.421552734375,4.813037395477295,4.709519386291504,-1.0688378810882568
1716557807352684500,7.4316845703125,4.315146446228027,5.152942657470703,-1.324249267578125
1716557807362816500,7.44181640625,3.5099196434020996,5.541502952575684,-1.4671958684921265
1716557807372948200,7.4519482421875,2.6247105598449707,5.746160507202148,-1.511002779006958
1716557807383080200,7.462080078125,1.6656427383422852,5.698051452636719,-1.4511287212371826
1716557807393212000,7.4722119140625,0.4986410140991211,5.450613975524902,-1.2738772630691528
1716557807403344000,7.48234375,-0.9791889190673828,4.98067569732666,-1.1546422243118286
1716557807413475600,7.4924755859375,-2.118989944458008,4.457001686096191,-0.9868663549423218
1716557807423607600,7.502607666015625,-2.9206018447875977,4.08073616027832,-0.41920605301856995
1716557807433739300,7.5127392578125,-3.8313517570495605,3.62642765045166,0.528654158115387
1716557807443871200,7.522871337890625,-5.3637847900390625,2.701077461242676,1.2738473415374756
1716557807454003000,7.5330029296875,-6.618130683898926,1.2151851654052734,1.0010448694229126
1716557807464134700,7.543134765625,-6.423435211181641,-0.912388801574707,-0.08331407606601715
1716557807474266600,7.5532666015625,-5.415266990661621,-3.2154645919799805,-0.36183658242225647
1716557807484398300,7.5633984375,-4.486935138702393,-4.117955207824707,0.46158796548843384
1716557807494530300,7.5735302734375,-4.355819225311279,-3.5475854873657227,1.5733025074005127
1716557807504662000,7.583662109375,-3.851780414581299,-2.3213319778442383,1.2991993427276611
1716557807514794000,7.5937939453125,-3.1725125312805176,-0.9039688110351562,-0.36193421483039856
1716557807524925700,7.60392578125,-2.9331765174865723,0.4106178283691406,-2.314744710922241
1716557807535057700,7.6140576171875,-2.761112689971924,1.4800901412963867,-3.4942965507507324
1716557807545189400,7.624189453125,-2.1005444526672363,2.073629379272461,-3.7531354427337646
1716557807555321300,7.6343212890625,-2.642094612121582,1.520904541015625,-3.6497445106506348
1716557807565453000,7.644453125,-4.782013416290283,-0.9256610870361328,-3.195199728012085
1716557807575585000,7.6545849609375,-3.768367290496826,-5.523672103881836,-1.503024935722351
1716557807585716700,7.664716796875,-0.21274852752685547,-12.152793884277344,1.0373103618621826
1716557807595848700,7.6748486328125,-0.7109017372131348,-17.05532455444336,2.577414035797119
1716557807605980400,7.68498046875,-3.4058780670166016,-14.613295555114746,2.389319896697998
1716557807616112400,7.6951123046875,0.07853555679321289,-7.930258750915527,2.9405055046081543
1716557807626244000,7.705244140625,1.541841983795166,-1.1969242095947266,2.9063377380371094
1716557807636376000,7.7153759765625,1.7083091735839844,3.507953643798828,1.0930497646331787
1716557807646507800,7.7255078125,6.060568809509277,6.124458312988281,-1.6771928071975708
1716557807656609000,7.735609130859375,8.522615432739258,6.760181427001953,-4.174257755279541
1716557807666741000,7.745740966796875,6.683614253997803,5.046313285827637,-5.284179210662842
1716557807676872700,7.755872802734375,7.630316734313965,1.6727533340454102,-4.564010143280029
1716557807687004700,7.766004638671875,9.43918228149414,-2.2383852005004883,-2.9993534088134766
1716557807697136400,7.776136474609375,7.660104274749756,-5.894984245300293,-1.7694056034088135
1716557807707268400,7.786268310546875,3.9853320121765137,-7.656278610229492,-0.6934785842895508
1716557807717400000,7.796400146484375,1.144683837890625,-6.289517402648926,0.7946468591690063
1716557807727532000,7.806531982421875,1.2002832889556885,-3.049346923828125,2.3166983127593994
1716557807737663700,7.816663818359375,2.526930332183838,-0.6026697158813477,2.3930094242095947
1716557807747795700,7.826795654296875,3.574345350265503,-0.06984996795654297,2.7873177528381348
1716557807757927400,7.836927490234375,4.214263916015625,-0.3862600326538086,1.9637190103530884
1716557807768059400,7.847059326171875,3.942892074584961,-0.9454574584960938,1.6908278465270996
1716557807778191000,7.857191162109375,3.0771589279174805,-2.1171369552612305,0.8112061619758606
1716557807788323000,7.867322998046875,2.3025972843170166,-2.987412452697754,0.10444086790084839
1716557807798454800,7.877454833984375,1.786489486694336,-2.770761489868164,-0.5111905932426453
1716557807808586800,7.887586669921875,0.49030375480651855,-1.9029560089111328,-1.4160192012786865
1716557807818718500,7.897718505859375,-0.6015267372131348,-0.7576427459716797,-3.080871820449829
1716557807828850400,7.907850341796875,-0.5669106245040894,0.9042253494262695,-4.479716777801514
1716557807838982100,7.917982177734375,0.4700603485107422,2.535245895385742,-5.386255264282227
1716557807849114000,7.928114013671875,1.2422782182693481,3.577953338623047,-5.496312618255615
1716557807859245800,7.938245849609375,1.11431086063385,3.7309131622314453,-4.585970878601074
1716557807869377800,7.948377685546875,0.29139208793640137,2.847029685974121,-3.1639318466186523
1716557807879509500,7.958509521484375,-0.574512779712677,1.375157356262207,-1.6061115264892578
1716557807889641500,7.968641357421875,-1.0003199577331543,-0.009020805358886719,0.23845255374908447
1716557807899773200,7.978773193359375,-0.7771121263504028,-0.7616424560546875,2.154919385910034
1716557807909905200,7.9889052734375,-0.45472392439842224,-0.7674427032470703,3.4785680770874023
1716557807920036900,7.999036865234375,-0.44934695959091187,-0.28755855560302734,3.5437421798706055
1716557807930168800,8.0091689453125,-0.4724591076374054,0.5453939437866211,3.289167881011963
1716557807940300500,8.019300537109375,-0.3937583565711975,1.3315410614013672,2.560845375061035
1716557807950432500,8.0294326171875,-0.2187914252281189,1.777139663696289,2.032378673553467
1716557807960564200,8.039564208984375,0.09012466669082642,1.6802740097045898,1.9349312782287598
1716557807970696000,8.049696044921875,0.4778309762477875,1.176468849182129,2.1790785789489746
1716557807980828000,8.059827880859375,0.7636834979057312,0.6371746063232422,2.414386510848999
1716557807990959600,8.069959716796875,0.6625388264656067,0.4634523391723633,2.359264373779297
1716557808001091600,8.080091552734375,-0.11387526988983154,0.6370792388916016,1.9116655588150024
1716557808011223300,8.090223388671875,-1.3113951683044434,0.9632911682128906,1.2398625612258911
1716557808021355300,8.100355224609375,-2.4236974716186523,1.2769298553466797,0.5179444551467896
1716557808031487000,8.110487060546875,-3.0641212463378906,1.2266855239868164,-0.18074333667755127
1716557808041619000,8.120618896484375,-3.022300958633423,0.7288875579833984,-0.5934103727340698
1716557808051750700,8.130750732421875,-2.554482936859131,-0.00168609619140625,-0.6296786069869995
1716557808061882600,8.140882568359375,-2.1034274101257324,-0.5540714263916016,-0.20380187034606934
1716557808072014300,8.151014404296875,-2.098625659942627,-0.5185365676879883,0.3926032781600952
1716557808082146300,8.161146240234375,-2.456369400024414,-0.08622932434082031,0.8855210542678833
1716557808092278000,8.171278076171875,-2.812605857849121,0.09789657592773438,1.0415791273117065
1716557808102410000,8.181409912109375,-2.8154258728027344,-0.24069881439208984,1.004801869392395
1716557808112541700,8.191541748046875,-2.839143991470337,-0.5564556121826172,1.335483193397522
1716557808122673700,8.201673583984375,-3.2490885257720947,-0.5892906188964844,2.2686078548431396
1716557808132805400,8.211805419921875,-3.6218771934509277,-0.6267728805541992,4.005019187927246
1716557808142937300,8.221937255859375,-3.59547758102417,-0.9318532943725586,4.073400497436523
1716557808153069000,8.232069091796875,-3.6524136066436768,-1.598496437072754,6.169412136077881
1716557808163201000,8.242200927734375,-3.5471699237823486,-2.4348134994506836,7.809504508972168
1716557808173332700,8.252332763671875,-3.1552069187164307,-2.696460723876953,8.024293899536133
1716557808183464700,8.262464599609375,-2.9711973667144775,-2.365626335144043,6.895461082458496
1716557808193596400,8.272596435546875,-2.8259782791137695,-2.370037078857422,3.1128993034362793
1716557808203728400,8.282728271484375,-2.2653284072875977,-2.914128303527832,2.138955593109131
1716557808213860000,8.292860107421875,-1.6883273124694824,-3.670909881591797,2.292381763458252
1716557808223992000,8.302991943359375,-0.9781286716461182,-4.53828239440918,2.654243230819702
1716557808234123800,8.313123779296875,-0.4637579917907715,-5.210638999938965,2.400933265686035
1716557808244255700,8.323255859375,-0.7126083374023438,-5.2068681716918945,1.3584142923355103
1716557808254387500,8.333387451171875,-1.5210001468658447,-4.845558166503906,-0.10841715335845947
1716557808264519400,8.34351953125,-2.031848669052124,-4.627361297607422,-1.743186354637146
1716557808274651100,8.353651123046875,-2.398632764816284,-3.921175956726074,-2.9559407234191895
1716557808284783000,8.363783203125,-3.2702863216400146,-3.672229766845703,-3.931243896484375
1716557808294914800,8.373914794921875,-4.082549095153809,-3.924100875854492,-5.071010112762451
1716557808305046500,8.384046630859375,-4.24882173538208,-4.5003204345703125,-6.804182052612305
1716557808315178500,8.394178466796875,-3.6191179752349854,-4.953821182250977,-8.553688049316406
1716557808325310200,8.404310302734375,-2.1396727561950684,-5.606860160827637,-9.325593948364258
1716557808335442200,8.414442138671875,-0.2871900796890259,-6.777806282043457,-8.477760314941406
1716557808345574000,8.424573974609375,1.4246140718460083,-7.484326362609863,-7.082496643066406
1716557808355705900,8.434705810546875,2.8527071475982666,-6.609988212585449,-5.30958890914917
1716557808365837600,8.444837646484375,2.91178035736084,-4.854379653930664,-2.601806163787842
1716557808375969500,8.454969482421875,2.512202262878418,-3.761394500732422,-0.6438723802566528
1716557808386101200,8.465101318359375,1.77683687210083,-3.221369743347168,1.0833051204681396
1716557808396233200,8.475233154296875,0.4358375072479248,-2.70736026763916,1.851070761680603
1716557808406365000,8.485364990234375,-1.3488070964813232,-2.104248046875,1.5849084854125977
1716557808416497000,8.495496826171875,-2.3120579719543457,-1.7138471603393555,0.8253172039985657
1716557808426628600,8.505628662109375,-1.9226617813110352,-1.3437013626098633,-0.12886261940002441
1716557808436760600,8.515760498046875,-0.4530165195465088,-0.952183723449707,-1.1130762100219727
1716557808446892300,8.525892333984375,0.7226905822753906,-0.5583715438842773,-1.694198489189148
1716557808457024300,8.536024169921875,1.9667797088623047,0.11070060729980469,-1.8082759380340576
1716557808467156000,8.546156005859375,2.9942092895507812,0.7290687561035156,-1.8436594009399414
1716557808477288000,8.556287841796875,3.7936227321624756,1.2905445098876953,-1.9345542192459106
1716557808487419600,8.566419677734375,4.057470321655273,1.866786003112793,-1.4292378425598145
1716557808497551600,8.576551513671875,3.9890129566192627,2.2747459411621094,-0.6437405943870544
1716557808507683300,8.586683349609375,3.9667787551879883,2.474447250366211,0.012554347515106201
1716557808517815300,8.596815185546875,4.110270977020264,2.585660934448242,0.5840885043144226
1716557808527947000,8.606947021484375,4.454191207885742,2.7851791381835938,1.1128618717193604
1716557808538079000,8.617078857421875,4.839498043060303,3.0951404571533203,1.4486662149429321
1716557808548210700,8.627210693359375,5.222767353057861,3.6067380905151367,1.6088865995407104
1716557808558342700,8.6373427734375,5.557418346405029,4.162322998046875,1.5722625255584717
1716557808568474400,8.647474365234375,5.613150119781494,4.549077033996582,1.3115607500076294
1716557808578606300,8.6576064453125,5.680570602416992,4.772093772888184,1.0151641368865967
1716557808588738000,8.667738037109375,5.7372965812683105,4.867941856384277,0.7009072303771973
1716557808598870000,8.6778701171875,5.70020866394043,4.919792175292969,0.4131847620010376
1716557808609001700,8.688001708984375,5.289130210876465,4.963273048400879,0.027777209877967834
1716557808619133400,8.698133544921875,4.828242778778076,5.038565635681152,-0.3155320882797241
1716557808629265400,8.708265380859375,4.165282249450684,5.075850486755371,-0.6045316457748413
1716557808639397000,8.718397216796875,3.0123367309570312,5.068175315856934,-0.7319576740264893
1716557808649529000,8.728529052734375,1.976743221282959,4.983813285827637,-0.7621904015541077
1716557808659660800,8.738660888671875,0.7200236320495605,4.790513038635254,-0.903229832649231
1716557808669762300,8.74876220703125,-0.8327512741088867,4.247023582458496,-1.2035794258117676
1716557808679894000,8.75889404296875,-1.7123217582702637,3.386551856994629,-1.654579758644104
1716557808690026000,8.76902587890625,-2.0841851234436035,2.5378341674804688,-2.1344375610351562
1716557808700157700,8.77915771484375,-3.098506450653076,1.6700000762939453,-2.804884910583496
1716557808710289700,8.78928955078125,-5.004539966583252,0.7126560211181641,-3.633254289627075
1716557808720421400,8.79942138671875,-7.097628593444824,-0.31418800354003906,-4.426390171051025
1716557808730553300,8.80955322265625,-8.748834609985352,-1.361271858215332,-4.45524787902832
1716557808740685000,8.81968505859375,-9.179786682128906,-2.1328859329223633,-3.3133437633514404
1716557808750817000,8.829817138671874,-8.086009979248047,-2.4286985397338867,-0.12031775712966919
1716557808760948700,8.83994873046875,-5.779551029205322,-2.7767858505249023,-0.03130728006362915
1716557808771080700,8.850080810546874,-3.7064733505249023,-3.0518455505371094,4.327240467071533
1716557808781212400,8.86021240234375,-3.275604248046875,-2.7936315536499023,6.9030609130859375
1716557808791344400,8.870344482421874,-3.2801036834716797,-2.087540626525879,2.374774217605591
1716557808801476000,8.88047607421875,-3.618088722229004,-1.3749828338623047,-0.7230730056762695
1716557808811607800,8.89060791015625,-4.180365085601807,-0.5600605010986328,-2.1583516597747803
1716557808821739800,8.90073974609375,-4.337993144989014,0.8582592010498047,-2.129319906234741
1716557808831871500,8.91087158203125,-4.679142475128174,2.3560829162597656,-0.49939513206481934
1716557808842003500,8.92100341796875,-5.840781211853027,2.555278778076172,1.228439211845398
1716557808852135200,8.93113525390625,-8.673952102661133,-1.727829933166504,1.3282191753387451
1716557808862267100,8.94126708984375,-9.46026611328125,-9.203446388244629,1.2938390970230103
1716557808872398800,8.95139892578125,0.32795238494873047,-15.78796672821045,2.0598175525665283
1716557808882530800,8.96153076171875,10.732009887695312,-19.306201934814453,0.5713818669319153
1716557808892662500,8.97166259765625,6.964787483215332,-15.953829765319824,-2.4020562171936035
1716557808902794500,8.98179443359375,2.057199001312256,-8.054130554199219,-5.1926798820495605
1716557808912926200,8.99192626953125,-2.7414770126342773,-1.494070053100586,-8.518239974975586
1716557808923058200,9.00205810546875,-0.8436431884765625,3.543468475341797,-8.691302299499512
1716557808933190000,9.01218994140625,5.766950607299805,6.515958786010742,-6.430560111999512
1716557808943321900,9.02232177734375,13.057637214660645,7.6183061599731445,-2.1543679237365723
1716557808953453600,9.03245361328125,18.847747802734375,7.1497802734375,1.949115514755249
1716557808963585500,9.04258544921875,21.587684631347656,4.957751274108887,3.4505085945129395
1716557808973717200,9.05271728515625,17.815982818603516,1.231760025024414,1.6872937679290771
1716557808983849200,9.06284912109375,11.276162147521973,-2.4927444458007812,-0.9424579739570618
1716557808993981000,9.07298095703125,3.237116813659668,-6.225560188293457,-2.426548480987549
1716557809004113000,9.08311279296875,-3.1585288047790527,-9.661394119262695,-1.9357402324676514
1716557809014244600,9.09324462890625,-3.4507462978363037,-10.814634323120117,0.7534018754959106
1716557809024376600,9.10337646484375,0.18621134757995605,-8.667256355285645,0.9201979637145996
1716557809034508300,9.11350830078125,3.9617815017700195,-4.509783744812012,4.065101146697998
1716557809044640300,9.12364013671875,5.020783424377441,-1.9783105850219727,3.9375767707824707
1716557809054772000,9.13377197265625,3.0631320476531982,-0.995819091796875,2.108445405960083
1716557809064904000,9.143904052734374,0.6365969181060791,-0.34810638427734375,0.4862669110298157
1716557809075035600,9.15403564453125,-1.2721803188323975,0.4522285461425781,-1.2098079919815063
1716557809085167600,9.164167724609374,-2.3773865699768066,1.477381706237793,-2.882702589035034
1716557809095299300,9.17429931640625,-2.1996419429779053,2.4490041732788086,-3.876343250274658
1716557809105431300,9.184431396484374,-1.6154999732971191,3.4319028854370117,-3.8941078186035156
1716557809115563000,9.19456298828125,-1.0090922117233276,4.2935943603515625,-3.006859302520752
1716557809125694700,9.20469482421875,-0.5085302591323853,4.732398986816406,-1.6248993873596191
1716557809135826700,9.21482666015625,-0.40578997135162354,4.617571830749512,-0.15145933628082275
1716557809145958400,9.22495849609375,-0.6396254301071167,3.944936752319336,0.898900032043457
1716557809156090400,9.23509033203125,-0.9951371550559998,2.6824989318847656,1.413320541381836
1716557809166222000,9.24522216796875,-1.4622997045516968,1.2655906677246094,1.8367031812667847
1716557809176354000,9.25535400390625,-1.6026897430419922,-0.11408519744873047,2.2371020317077637
1716557809186485800,9.26548583984375,-1.1137819290161133,-1.1947555541992188,2.6930174827575684
1716557809196617700,9.27561767578125,-0.2846604585647583,-1.430288314819336,3.076638698577881
1716557809206749400,9.28574951171875,0.6118241548538208,-0.5885028839111328,3.166239023208618
1716557809216881400,9.29588134765625,1.02959406375885,0.5295848846435547,2.8874919414520264
1716557809227013000,9.30601318359375,0.8632693886756897,1.4166879653930664,2.491168975830078
1716557809237145000,9.31614501953125,0.6363323926925659,1.8305168151855469,2.159705400466919
1716557809247276800,9.32627685546875,0.7043025493621826,1.8582210540771484,1.9399948120117188
1716557809257408800,9.33640869140625,0.9215914011001587,1.8806352615356445,1.9336977005004883
1716557809267540500,9.34654052734375,0.9490525722503662,2.0181360244750977,2.0748846530914307
1716557809277672400,9.35667236328125,0.20426028966903687,1.9977598190307617,2.163884162902832
1716557809287804200,9.36680419921875,-1.56622314453125,1.4563789367675781,1.728022813796997
1716557809297936100,9.37693603515625,-3.5553321838378906,0.6332836151123047,0.6828653812408447
1716557809308067800,9.38706787109375,-4.867697715759277,0.36241626739501953,-0.169266939163208
1716557809318199800,9.39719970703125,-5.365575313568115,0.6757297515869141,-0.46819424629211426
1716557809328331500,9.40733154296875,-5.133988380432129,0.5763788223266602,-0.5081825256347656
1716557809338463500,9.41746337890625,-3.969470739364624,-0.6763849258422852,-0.1916484832763672
1716557809348595200,9.42759521484375,-2.0134031772613525,-2.570589065551758,0.9703357219696045
1716557809358727200,9.43772705078125,-0.5453236103057861,-3.868350028991699,2.5640485286712646
1716557809368859000,9.44785888671875,-0.740700364112854,-4.335770606994629,4.0746612548828125
1716557809378990800,9.457990966796874,-2.39640736579895,-4.556025505065918,5.063493728637695
1716557809389122600,9.46812255859375,-4.882026195526123,-4.695703506469727,5.839197158813477
1716557809399254500,9.478254638671874,-6.754655838012695,-4.791848182678223,5.872764587402344
1716557809409386200,9.48838623046875,-6.941224575042725,-4.8739423751831055,6.446778297424316
1716557809419518200,9.498518310546874,-5.6019158363342285,-4.786659240722656,6.859870910644531
1716557809429650000,9.50864990234375,-3.865438461303711,-5.001350402832031,7.188938140869141
1716557809439781600,9.51878173828125,-2.4868202209472656,-5.280669212341309,7.312731742858887
1716557809449913600,9.52891357421875,-1.7120856046676636,-5.0457868576049805,7.724724769592285
1716557809460045300,9.53904541015625,-0.9979227781295776,-4.885247230529785,8.33774185180664
1716557809470177300,9.54917724609375,-0.3156381845474243,-5.178628921508789,9.399445533752441
1716557809480309000,9.55930908203125,0.768006443977356,-5.848073959350586,9.658256530761719
1716557809490441000,9.56944091796875,-0.25593531131744385,-5.676751136779785,3.746424913406372
1716557809500572700,9.57957275390625,-2.898874282836914,-5.4170379638671875,3.4741735458374023
1716557809510704600,9.58970458984375,-3.4255921840667725,-5.698110580444336,-7.293422698974609
1716557809520836400,9.59983642578125,-1.2451767921447754,-5.916947364807129,-11.555994987487793
1716557809530968300,9.60996826171875,1.4210231304168701,-5.96552848815918,-13.322277069091797
1716557809541100000,9.62010009765625,3.681671380996704,-5.813859939575195,-12.62282943725586
1716557809551232000,9.63023193359375,4.170748710632324,-5.357516288757324,-10.304096221923828
1716557809561363700,9.64036376953125,3.25154185295105,-4.8294477462768555,-7.1066484451293945
1716557809571495700,9.65049560546875,2.1729018688201904,-4.220510482788086,-3.575660228729248
1716557809581627400,9.66062744140625,1.0046769380569458,-4.110803604125977,-0.4476979970932007
1716557809591759400,9.67075927734375,-0.2855774164199829,-4.156614303588867,2.1962008476257324
1716557809601891000,9.68089111328125,-0.9204024076461792,-3.7035064697265625,3.392153263092041
1716557809612023000,9.69102294921875,-0.9220376014709473,-2.796682357788086,3.234693765640259
1716557809622154800,9.70115478515625,-0.6719841957092285,-1.8417539596557617,1.984809160232544
1716557809632286700,9.71128662109375,0.05348038673400879,-1.046487808227539,0.29376220703125
1716557809642418400,9.72141845703125,1.390862226486206,-0.39081382751464844,-0.7917152047157288
1716557809652550400,9.73155029296875,3.210876226425171,0.13948345184326172,-1.4820959568023682
1716557809662682000,9.74168212890625,4.12890625,0.4981365203857422,-1.6330296993255615
1716557809672814000,9.75181396484375,4.599461555480957,0.7684526443481445,-1.575402855873108
1716557809682945800,9.76194580078125,4.929230690002441,1.0017423629760742,-1.6607130765914917
1716557809693077800,9.772077880859374,4.706830978393555,1.2270479202270508,-1.4693609476089478
1716557809703209500,9.78220947265625,4.4408135414123535,1.5261878967285156,-1.2420488595962524
1716557809713341400,9.792341552734374,3.9119834899902344,1.737563133239746,-0.8111193180084229
1716557809723473200,9.80247314453125,4.027010917663574,1.9290142059326172,-0.397426962852478
1716557809733605000,9.812605224609374,4.642893314361572,2.264291763305664,0.013933947309851646
1716557809743736800,9.82273681640625,5.662527084350586,2.6922054290771484,0.29208046197891235
1716557809753838000,9.832838134765625,6.568265914916992,3.1193180084228516,0.3309907913208008
1716557809763970000,9.842969970703125,7.065005779266357,3.4308176040649414,0.16031357645988464
1716557809774101800,9.853101806640625,7.241221904754639,3.627730369567871,-0.007143676280975342
1716557809784233700,9.863233642578125,7.369222640991211,3.6868419647216797,-0.2196108102798462
1716557809794365400,9.873365478515625,7.253089427947998,3.6894569396972656,-0.6577452421188354
1716557809804497400,9.883497314453125,7.03495454788208,3.856294631958008,-1.123853325843811
1716557809814629000,9.893629150390625,6.70499324798584,4.235883712768555,-1.3482747077941895
1716557809824761000,9.903760986328125,6.074174880981445,4.634918212890625,-1.4502586126327515
1716557809834892800,9.913892822265625,5.272019863128662,4.929586410522461,-1.5220084190368652
1716557809845024800,9.924024658203125,4.431706428527832,5.140802383422852,-1.480907678604126
1716557809855156500,9.934156494140625,3.4739842414855957,5.2842912673950195,-1.3273814916610718
1716557809865288400,9.944288330078125,2.351484775543213,5.298811912536621,-1.3226392269134521
1716557809875420200,9.954420166015625,1.1237106323242188,5.109238624572754,-1.5827562808990479
1716557809885552000,9.96455224609375,-0.6114864349365234,4.583584785461426,-2.19463849067688
1716557809895683800,9.974683837890625,-2.908237934112549,3.5214786529541016,-2.767543077468872
1716557809905815800,9.98481591796875,-5.129849433898926,1.7418956756591797,-3.2170119285583496
1716557809915947500,9.994947509765625,-7.811398506164551,-0.7637720108032227,-3.742947578430176
1716557809926079500,10.00507958984375,-9.343474388122559,-4.183157920837402,-5.157928943634033
1716557809936211200,10.015211181640625,-8.03091812133789,-7.534345626831055,-3.2713067531585693
1716557809946343000,10.025343017578125,-6.316460609436035,-10.131854057312012,3.1466550827026367
1716557809956475000,10.035474853515625,-5.980210304260254,-10.215287208557129,3.1628172397613525
1716557809966606600,10.045606689453125,-6.0460968017578125,-7.825407981872559,8.120881080627441
1716557809976738600,10.055738525390625,-5.555691719055176,-4.382742881774902,7.625330448150635
1716557809986870300,10.065870361328125,-4.569323539733887,-1.0632190704345703,0.9422551393508911
1716557809997002200,10.076002197265625,-3.966322898864746,1.8334274291992188,-1.5076467990875244
1716557810007134000,10.086134033203125,-3.5542540550231934,4.164112091064453,-2.7499871253967285
1716557810017266000,10.096265869140625,-4.136473655700684,5.920611381530762,-1.9593725204467773
1716557810027397600,10.106397705078125,-7.202210426330566,6.839323043823242,-0.07459312677383423
1716557810037529600,10.116529541015625,-10.130542755126953,5.186246871948242,1.970685601234436
1716557810047661300,10.126661376953125,-9.812261581420898,-0.3923349380493164,2.5904595851898193
1716557810057793300,10.136793212890625,-1.9196362495422363,-9.024755477905273,2.449007034301758
1716557810067925000,10.146925048828125,16.08547019958496,-15.524674415588379,3.353320598602295
1716557810078057000,10.157056884765625,22.115049362182617,-20.04547119140625,-3.076263427734375
1716557810088188700,10.167188720703125,9.46329116821289,-17.259456634521484,-8.030980110168457
1716557810098320600,10.177320556640625,-6.799253940582275,-10.569197654724121,-8.605164527893066
1716557810108452400,10.187452392578125,-12.07774543762207,-5.231416702270508,-10.222698211669922
1716557810118584300,10.197584228515625,-3.911255359649658,-0.12032699584960938,-8.537946701049805
1716557810128716000,10.207716064453125,8.189702033996582,3.5030088424682617,-5.5026092529296875
1716557810138848000,10.217847900390625,16.032060623168945,5.468504905700684,-2.4213931560516357
1716557810148979700,10.227979736328125,19.693016052246094,5.760861396789551,0.8237854242324829
1716557810159111700,10.238111572265625,21.11581802368164,5.104123115539551,3.44035267829895
1716557810169243400,10.248243408203125,18.167564392089844,3.080667495727539,3.1471195220947266
1716557810179375400,10.258375244140625,13.12954330444336,0.3820056915283203,1.1318658590316772
1716557810189507000,10.268507080078125,8.299142837524414,-2.4603185653686523,-0.8211313486099243
1716557810199639000,10.27863916015625,2.523484230041504,-6.0757036209106445,-2.4066150188446045
1716557810209770800,10.288770751953125,-3.4313151836395264,-8.922136306762695,-2.2656872272491455
1716557810219902700,10.29890283203125,-4.660852432250977,-9.254408836364746,0.5275310277938843
1716557810230034400,10.309034423828125,-1.4896111488342285,-6.9827680587768555,2.9162988662719727
1716557810240166400,10.31916650390625,2.148923397064209,-3.7625656127929688,3.264331579208374
1716557810250298000,10.329298095703125,3.383136510848999,-1.5978212356567383,1.9981179237365723
1716557810260429800,10.339429931640625,2.6388463973999023,-0.12591075897216797,0.30962812900543213
1716557810270561800,10.349561767578125,1.142918586730957,1.0288457870483398,-1.1940823793411255
1716557810280693500,10.359693603515625,-0.21257734298706055,2.0022850036621094,-2.4578723907470703
1716557810290825500,10.369825439453125,-1.2182682752609253,2.9802494049072266,-3.1834168434143066
1716557810300957200,10.379957275390625,-1.4226528406143188,3.73044490814209,-3.1216602325439453
1716557810311089200,10.390089111328125,-0.8711847066879272,3.816974639892578,-2.4461212158203125
1716557810321220900,10.400220947265625,-0.11904287338256836,3.2752199172973633,-1.1461869478225708
1716557810331352800,10.410352783203125,0.015146493911743164,2.373310089111328,0.2880866527557373
1716557810341484500,10.420484619140625,0.049490928649902344,1.249166488647461,1.6665246486663818
1716557810351616500,10.430616455078125,-0.17777776718139648,0.15723419189453125,2.615177631378174
1716557810361748200,10.440748291015625,-0.740370512008667,-0.7116479873657227,3.0192081928253174
1716557810371880200,10.450880126953125,-1.2992377281188965,-1.0380849838256836,3.2193493843078613
1716557810382012000,10.461011962890625,-1.5198278427124023,-0.7866010665893555,3.2684850692749023
1716557810392144000,10.471143798828125,-0.9036746025085449,-0.17948150634765625,2.9890503883361816
1716557810402275600,10.481275634765625,0.07015162706375122,0.4434795379638672,2.2615838050842285
1716557810412407600,10.491407470703125,0.4767690598964691,0.9683694839477539,1.4419692754745483
1716557810422539300,10.501539306640625,0.2830761671066284,1.3842239379882812,1.2067770957946777
1716557810432671200,10.511671142578125,0.26901134848594666,1.4330568313598633,1.3686431646347046
1716557810442803000,10.521802978515625,0.2410351037979126,1.397780418395996,1.2684309482574463
1716557810452935000,10.531934814453125,-0.2890623211860657,1.4999065399169922,0.7601033449172974
1716557810463066600,10.542066650390625,-0.9638460278511047,1.4370784759521484,0.45623576641082764
1716557810473198600,10.552198486328125,-1.415560007095337,0.9473648071289062,0.8691229820251465
1716557810483330300,10.562330322265625,-1.8757295608520508,0.013686180114746094,1.302873969078064
1716557810493462300,10.572462158203125,-2.2965636253356934,-0.8784523010253906,1.2743998765945435
1716557810503594000,10.582593994140625,-4.431919097900391,-0.620671272277832,-0.2536602020263672
1716557810513726000,10.592725830078125,-4.894059181213379,0.10015106201171875,0.17704415321350098
1716557810523857700,10.602857666015625,-4.059201717376709,0.29819202423095703,0.33019495010375977
1716557810533989600,10.61298974609375,-3.144519329071045,0.3975839614868164,0.26505446434020996
1716557810544121300,10.623121337890625,-2.5672621726989746,0.1781330108642578,0.6908366680145264
1716557810554253300,10.63325341796875,-1.9784375429153442,-0.2780466079711914,1.142388105392456
1716557810564385000,10.643385009765625,-1.6326242685317993,-0.45301055908203125,1.725576400756836
1716557810574516700,10.653516845703125,-1.5130012035369873,-0.6532268524169922,2.4668095111846924
1716557810584648700,10.663648681640625,-1.516947627067566,-1.2003583908081055,3.0882461071014404
1716557810594780400,10.673780517578125,-2.068556785583496,-1.9271631240844727,3.6070785522460938
1716557810604912400,10.683912353515625,-3.0738654136657715,-2.517047882080078,3.8768563270568848
1716557810615044000,10.694044189453125,-3.6866519451141357,-2.4181737899780273,3.658350944519043
1716557810625176000,10.704176025390625,-3.3090763092041016,-1.7666311264038086,2.206472158432007
1716557810635307800,10.714307861328125,-2.7154500484466553,-1.3047151565551758,0.12618613243103027
1716557810645439700,10.724439697265625,-2.9735279083251953,-1.0358219146728516,-1.325221061706543
1716557810655571500,10.734571533203125,-3.2596311569213867,-0.8760166168212891,-2.1134045124053955
1716557810665703400,10.744703369140625,-2.8969521522521973,-0.8297920227050781,-2.3378515243530273
1716557810675835100,10.754835205078125,-2.6556453704833984,-0.8083715438842773,-1.70931077003479
1716557810685967000,10.764967041015625,-2.497744560241699,-1.0156059265136719,-0.7128129005432129
1716557810696098800,10.775098876953125,-2.6976213455200195,-1.5931682586669922,0.9543476104736328
1716557810706230800,10.785230712890625,-2.621870994567871,-2.3411483764648438,2.8940346240997314
1716557810716362500,10.795362548828125,-2.2443273067474365,-2.4797725677490234,4.298978328704834
1716557810726494500,10.805494384765625,-1.6890314817428589,-1.974034309387207,5.026480674743652
1716557810736626200,10.815626220703125,-1.7456848621368408,-1.6154794692993164,5.308067798614502
1716557810746758100,10.825758056640625,-2.15647554397583,-1.7048721313476562,5.226880073547363
1716557810756889900,10.835889892578125,-2.8391687870025635,-2.1011829376220703,5.563403606414795
1716557810767021800,10.846021728515625,-3.375440835952759,-2.8042373657226562,6.008901596069336
1716557810777153500,10.856153564453125,-3.829030990600586,-3.8033456802368164,4.431166172027588
1716557810787285500,10.866285400390625,-3.359513759613037,-5.153616905212402,1.2669740915298462
1716557810797417200,10.876417236328125,-1.8290836811065674,-6.283598899841309,-2.6751461029052734
1716557810807549200,10.886549072265625,-0.2529665529727936,-6.27325439453125,-3.8038806915283203
1716557810817681000,10.896680908203125,3.4445226192474365,-5.233480453491211,-5.7670979499816895
1716557810827812900,10.906812744140625,5.896595001220703,-3.6218881607055664,-6.4217119216918945
1716557810837944600,10.916944580078125,6.249083995819092,-2.897528648376465,-6.327458381652832
1716557810848076500,10.92707666015625,4.594064235687256,-2.7875614166259766,-5.954733848571777
1716557810858208300,10.937208251953125,1.7430741786956787,-3.095118522644043,-4.067609786987305
1716557810868340200,10.94734033203125,-0.6258213520050049,-3.019209861755371,-0.47950637340545654
1716557810878472000,10.957471923828125,-1.2755460739135742,-2.6372928619384766,3.2110912799835205
1716557810888604000,10.96760400390625,-1.4722157716751099,-2.868269920349121,3.1570558547973633
1716557810898735600,10.977735595703125,-0.701317548751831,-3.258498191833496,4.929064750671387
1716557810908836900,10.9878369140625,0.2513461112976074,-2.9039735794067383,2.6832261085510254
1716557810918968800,10.99796875,1.225196361541748,-1.9816465377807617,0.9088560342788696
1716557810929100500,11.0081005859375,2.20808744430542,-1.2111024856567383,-0.5055238008499146
1716557810939232500,11.018232421875,2.64411997795105,-0.5854482650756836,-1.0992563962936401
1716557810949364200,11.0283642578125,3.846564531326294,-0.07438087463378906,-1.298284888267517
1716557810959496200,11.03849609375,4.4443793296813965,0.2918272018432617,-0.9788992404937744
1716557810969628000,11.0486279296875,4.302813529968262,0.4191322326660156,-0.5330744981765747
1716557810979759900,11.058759765625,4.387508392333984,0.4895458221435547,-0.12094640731811523
1716557810989891600,11.0688916015625,4.4391913414001465,0.5213117599487305,0.45948565006256104
1716557811000023600,11.0790234375,4.212421894073486,0.5290536880493164,0.7028412818908691
1716557811010155300,11.0891552734375,4.279722690582275,0.6790637969970703,0.8126881122589111
1716557811020287200,11.099287353515624,4.579246520996094,1.0652122497558594,0.8259658813476562
1716557811030419000,11.1094189453125,4.594300270080566,1.4879751205444336,0.9323478937149048
1716557811040551000,11.119551025390624,4.574191093444824,1.8156147003173828,1.0811564922332764
1716557811050682600,11.1296826171875,4.434865474700928,1.9955835342407227,1.0908701419830322
1716557811060814600,11.139814697265624,4.193229675292969,2.044923782348633,0.9667763710021973
1716557811070946300,11.1499462890625,3.8856115341186523,2.062915802001953,0.8449243307113647
1716557811081078000,11.160078125,3.7183213233947754,2.1688947677612305,0.5654048919677734
1716557811091210000,11.1702099609375,3.808856964111328,2.352116584777832,0.11476492881774902
1716557811101341700,11.180341796875,3.964137077331543,2.630054473876953,-0.3451263904571533
1716557811111473700,11.1904736328125,4.125442981719971,2.975414276123047,-0.6416904926300049
1716557811121605400,11.20060546875,4.274160861968994,3.331188201904297,-0.6922600269317627
1716557811131737300,11.2107373046875,4.295284271240234,3.6176862716674805,-0.5658429861068726
1716557811141869000,11.220869140625,4.16913366317749,3.844222068786621,-0.38152146339416504
1716557811152001000,11.2310009765625,3.7202987670898438,3.8646535873413086,-0.35534024238586426
1716557811162132700,11.2411328125,2.9086289405822754,3.6939163208007812,-0.5233391523361206
1716557811172264700,11.2512646484375,1.8100385665893555,3.414597511291504,-0.7933870553970337
1716557811182396400,11.261396484375,0.4393181800842285,3.0722837448120117,-1.260514497756958
1716557811192528400,11.2715283203125,-0.9619131088256836,2.5459604263305664,-2.0144872665405273
1716557811202660000,11.28166015625,-2.906357765197754,2.0021982192993164,-2.6899566650390625
1716557811212792000,11.2917919921875,-5.262637615203857,1.1215400695800781,-3.0251331329345703
1716557811222923800,11.301923828125,-7.099781036376953,-0.06650733947753906,-2.692473888397217
1716557811233055700,11.3120556640625,-7.177271366119385,-1.1388120651245117,-1.3242144584655762
1716557811243187500,11.3221875,-5.307062149047852,-1.7369747161865234,1.0939830541610718
1716557811253319400,11.3323193359375,-4.329131126403809,-2.773087501525879,3.463822364807129
1716557811263451100,11.342451171875,-4.356975078582764,-3.44527530670166,3.477100133895874
1716557811273583000,11.3525830078125,-5.180827617645264,-3.5004568099975586,5.210259914398193
1716557811283714800,11.36271484375,-4.845478534698486,-3.0982799530029297,3.1859169006347656
1716557811293846800,11.3728466796875,-3.888932704925537,-2.285860061645508,1.199737548828125
1716557811303978500,11.382978515625,-3.48457670211792,-1.2746171951293945,-0.06659364700317383
1716557811314110500,11.3931103515625,-3.5101847648620605,-0.2222433090209961,-0.22336578369140625
1716557811324242200,11.4032421875,-3.48211669921875,1.0234861373901367,1.0043996572494507
1716557811334374100,11.4133740234375,-2.674410343170166,2.2949466705322266,2.795032024383545
1716557811344505900,11.423505859375,-2.2137718200683594,3.3945627212524414,4.55348014831543
1716557811354637800,11.433637939453124,-1.8873481750488281,4.1582841873168945,4.185554027557373
1716557811364769500,11.44376953125,-2.4770731925964355,3.6697158813476562,1.8345906734466553
1716557811374901500,11.453901611328124,-3.9079718589782715,0.7854938507080078,-0.8761231899261475
1716557811385033200,11.464033203125,-8.56728744506836,-5.629803657531738,-2.5352962017059326
1716557811395165200,11.474165283203124,-8.642250061035156,-14.090924263000488,-2.9708738327026367
1716557811405297000,11.484296875,1.4831852912902832,-20.85935401916504,-1.6475552320480347
1716557811415428600,11.4944287109375,9.040910720825195,-20.39453125,1.0141582489013672
1716557811425560600,11.504560546875,7.129410266876221,-11.441049575805664,0.7972718477249146
1716557811435692300,11.5146923828125,4.794223308563232,-3.312832832336426,-1.4581719636917114
1716557811445824300,11.52482421875,4.5603508949279785,3.122549057006836,-6.210369110107422
1716557811455956000,11.5349560546875,3.238229274749756,7.426034927368164,-9.5440092086792
1716557811466088000,11.545087890625,1.077857494354248,9.159601211547852,-12.759683609008789
1716557811476219600,11.5552197265625,3.857039451599121,9.055176734924316,-13.605928421020508
1716557811486351600,11.5653515625,11.174596786499023,7.891937255859375,-9.721271514892578
1716557811496483300,11.5754833984375,17.846599578857422,6.3794450759887695,-4.268533706665039
1716557811506615300,11.585615234375,18.538602828979492,3.393704414367676,-1.6599197387695312
1716557811516747000,11.5957470703125,14.052504539489746,-0.3554658889770508,-1.3307133913040161
1716557811526879000,11.60587890625,6.5216965675354,-4.181270599365234,-1.2454544305801392
1716557811537010700,11.6160107421875,-1.1444859504699707,-7.513069152832031,1.099868655204773
1716557811547142700,11.626142578125,-3.8452086448669434,-10.436795234680176,4.0397562980651855
1716557811557274400,11.6362744140625,-0.6638839244842529,-11.074639320373535,4.183323860168457
1716557811567406300,11.64640625,3.475898027420044,-6.489301681518555,6.108426570892334
1716557811577538000,11.6565380859375,5.334388732910156,-2.2038793563842773,8.622908592224121
1716557811587670000,11.666669921875,4.493373870849609,-0.579254150390625,4.302619934082031
1716557811597801700,11.6768017578125,2.5112404823303223,0.5163354873657227,0.7346483469009399
1716557811607933700,11.68693359375,-0.04832589626312256,1.8612394332885742,-1.5766464471817017
1716557811618065400,11.6970654296875,-2.124812364578247,3.0049209594726562,-3.4366068840026855
1716557811628197400,11.707197265625,-2.671849489212036,3.873392105102539,-4.675602436065674
1716557811638329000,11.7173291015625,-1.6605638265609741,4.448672294616699,-5.300826072692871
1716557811648461000,11.7274609375,-0.8554544448852539,4.480720520019531,-5.300353527069092
1716557811658592800,11.7375927734375,-0.8971357941627502,3.842534065246582,-4.237590789794922
1716557811668724700,11.747724853515624,-0.9602312445640564,2.711003303527832,-2.334193706512451
1716557811678856400,11.7578564453125,-0.8761770725250244,1.2830915451049805,-0.10654735565185547
1716557811688988400,11.767988525390624,-0.5187036991119385,-0.18729019165039062,1.675809621810913
1716557811699120000,11.7781201171875,0.21545670926570892,-1.1712522506713867,2.9272189140319824
1716557811709252000,11.788252197265624,0.6511136889457703,-1.2662811279296875,3.9601492881774902
1716557811719383800,11.7983837890625,0.19390763342380524,-0.8449697494506836,4.312029838562012
1716557811729515500,11.808515625,-0.5385357141494751,-0.20578861236572266,3.9604103565216064
1716557811739647500,11.8186474609375,-1.3275792598724365,0.3996734619140625,3.427699089050293
1716557811749779200,11.828779296875,-1.9259188175201416,0.7735567092895508,2.93109130859375
1716557811759911200,11.8389111328125,-1.8708630800247192,1.0208454132080078,2.4885895252227783
1716557811770043000,11.84904296875,-1.4833934307098389,1.2076139450073242,2.0725693702697754
1716557811780174800,11.8591748046875,-1.530409336090088,1.4596576690673828,1.662912368774414
1716557811790306600,11.869306640625,-1.916206955909729,1.7358245849609375,1.1861164569854736
1716557811800438500,11.8794384765625,-2.324766159057617,1.7589187622070312,0.8544509410858154
1716557811810570200,11.8895703125,-2.787921905517578,1.1709632873535156,0.7808554172515869
1716557811820702200,11.8997021484375,-3.3584704399108887,0.12595558166503906,0.8724498748779297
1716557811830834000,11.909833984375,-3.816622257232666,-0.5410060882568359,0.9806768894195557
1716557811840966000,11.9199658203125,-3.923676013946533,-0.3491172790527344,1.1073493957519531
1716557811851097600,11.93009765625,-3.5011367797851562,0.23239707946777344,0.995579719543457
1716557811861229600,11.9402294921875,-2.8106603622436523,0.4655799865722656,0.42613792419433594
1716557811871361300,11.950361328125,-2.484602212905884,0.04675579071044922,-0.4050776958465576
1716557811881493200,11.9604931640625,-2.9299819469451904,-0.7851419448852539,-0.7269330024719238
1716557811891625000,11.970625,-3.6497364044189453,-1.767195701599121,-0.1038508415222168
1716557811901757000,11.9807568359375,-3.6080007553100586,-1.9365596771240234,1.7646050453186035
1716557811911888600,11.990888671875,-3.241485834121704,-1.6879310607910156,4.360888481140137
1716557811922020600,12.0010205078125,-2.9311606884002686,-2.3540611267089844,4.416156768798828
1716557811932152300,12.01115234375,-3.1873550415039062,-3.7162837982177734,6.339765548706055
1716557811942284300,12.0212841796875,-3.6631550788879395,-4.203590393066406,6.955963134765625
1716557811952416000,12.031416015625,-3.1441397666931152,-3.325446128845215,4.984705448150635
1716557811962548000,12.0415478515625,-2.0918819904327393,-2.3851680755615234,2.6463167667388916
1716557811972679700,12.0516796875,-2.232956647872925,-2.346512794494629,1.4520068168640137
1716557811982811600,12.061811767578124,-2.82623553276062,-3.3434810638427734,2.1191015243530273
1716557811992943400,12.071943359375,-2.4435577392578125,-4.151000022888184,2.9389963150024414
1716557812003075300,12.082075439453124,-1.8824748992919922,-3.9876699447631836,4.0477495193481445
1716557812013207000,12.09220703125,-1.2840741872787476,-3.820675849914551,3.9248046875
1716557812023339000,12.102339111328124,-1.665785551071167,-4.768241882324219,5.255834579467773
1716557812033470700,12.112470703125,-2.7279438972473145,-5.880148887634277,3.917119264602661
1716557812043602400,12.1226025390625,-4.565549850463867,-5.8939361572265625,1.375861406326294
1716557812053734400,12.132734375,-4.405717372894287,-5.002180099487305,-2.2374346256256104
1716557812063866000,12.1428662109375,-2.183640241622925,-4.284960746765137,-6.40567684173584
1716557812073998000,12.152998046875,0.21381843090057373,-3.8748111724853516,-9.905094146728516
1716557812084129800,12.1631298828125,1.814179539680481,-3.6547937393188477,-11.226611137390137
1716557812094261800,12.17326171875,3.1546151638031006,-3.6775035858154297,-10.083520889282227
1716557812104393500,12.1833935546875,3.9265458583831787,-4.005136489868164,-8.10775089263916
1716557812114525400,12.193525390625,3.4091429710388184,-4.6350860595703125,-6.000080108642578
1716557812124657200,12.2036572265625,2.421823024749756,-5.2272138595581055,-3.534670352935791
1716557812134789000,12.2137890625,1.1554372310638428,-5.0027008056640625,-0.7291848659515381
1716557812144890400,12.223890380859375,-0.19362449645996094,-3.9042787551879883,1.5255318880081177
1716557812155022300,12.234022216796875,-0.9910585880279541,-3.31912899017334,2.138204574584961
1716557812165154000,12.244154052734375,-1.1679134368896484,-3.098491668701172,1.1463748216629028
1716557812175286000,12.2542861328125,-0.6785354614257812,-2.455446243286133,-0.4800679683685303
1716557812185417700,12.264417724609375,0.2993628978729248,-1.3653974533081055,-1.3343031406402588
1716557812195549700,12.2745498046875,1.1620590686798096,-0.3654346466064453,-1.2300307750701904
1716557812205681400,12.284681396484375,2.168638229370117,0.2064199447631836,-1.2018548250198364
1716557812215813400,12.2948134765625,2.924497365951538,0.6304330825805664,-1.1180338859558105
1716557812225945000,12.304945068359375,3.2678382396698,0.8421421051025391,-1.0056521892547607
1716557812236076800,12.315076904296875,3.44527006149292,0.9803676605224609,-1.1119520664215088
1716557812246208800,12.325208740234375,3.289388656616211,1.128514289855957,-0.8574967980384827
1716557812256340500,12.335340576171875,3.704934597015381,1.4747543334960938,-0.6158447265625
1716557812266472400,12.345472412109375,3.862551212310791,1.9354944229125977,-0.5062547922134399
1716557812276604200,12.355604248046875,4.102202892303467,2.494351387023926,-0.4708632826805115
1716557812286736100,12.365736083984375,4.368734836578369,3.1592493057250977,-0.42201709747314453
1716557812296867800,12.375867919921875,4.837915897369385,3.7191925048828125,-0.38493144512176514
1716557812306999800,12.385999755859375,5.413187026977539,4.016854286193848,-0.1574351191520691
1716557812317131500,12.396131591796875,5.735977649688721,4.023534774780273,0.08380383253097534
1716557812327263500,12.406263427734375,5.620096206665039,3.8129749298095703,0.23162966966629028
1716557812337395200,12.416395263671875,5.232180118560791,3.528384208679199,0.3842073678970337
1716557812347527200,12.426527099609375,4.870411396026611,3.312472343444824,0.4515191316604614
1716557812357659000,12.436658935546875,4.657731056213379,3.340975761413574,0.6235113143920898
1716557812367790800,12.446790771484375,4.533016204833984,3.581650733947754,0.6255738139152527
1716557812377922600,12.456922607421875,4.440740585327148,4.054247856140137,0.44110357761383057
1716557812388054500,12.467054443359375,4.336528301239014,4.784808158874512,0.524465024471283
1716557812398186200,12.477186279296875,4.257297039031982,5.5040082931518555,0.9656727313995361
1716557812408318200,12.487318115234375,4.023248672485352,5.816930770874023,1.3895304203033447
1716557812418450000,12.497449951171875,3.3586206436157227,5.624699592590332,1.633439540863037
1716557812428582000,12.507581787109375,1.9979958534240723,4.993602752685547,1.8533570766448975
1716557812438713600,12.517713623046875,0.0023355484008789062,4.01584529876709,2.0970396995544434
1716557812448845600,12.527845458984375,-2.35933256149292,2.733729362487793,2.029766798019409
1716557812458977300,12.537977294921875,-4.455865859985352,1.3312873840332031,0.992655873298645
1716557812469109200,12.548109130859375,-5.894903182983398,-0.1339559555053711,-0.8479205369949341
1716557812479241000,12.558240966796875,-7.370602130889893,-1.8856630325317383,-2.9451165199279785
1716557812489373000,12.568373046875,-8.697675704956055,-3.76153564453125,-4.119211196899414
1716557812499504600,12.578504638671875,-8.798761367797852,-5.005610466003418,-1.41555655002594
1716557812509636600,12.58863671875,-7.859015941619873,-6.155064582824707,3.3897342681884766
1716557812519768300,12.598768310546875,-6.022921562194824,-6.46439266204834,3.475148916244507
1716557812529900300,12.608900390625,-4.0494489669799805,-5.272651672363281,6.395933628082275
1716557812540032000,12.619031982421875,-2.9485063552856445,-3.05411434173584,3.2961297035217285
1716557812550163700,12.629163818359375,-2.597778797149658,-0.6172666549682617,1.0414930582046509
1716557812560295700,12.639295654296875,-2.8831429481506348,1.3472070693969727,-0.4550645351409912
1716557812570427400,12.649427490234375,-4.278201580047607,2.4786014556884766,-1.043701410293579
1716557812580559400,12.659559326171875,-5.436634063720703,2.3875045776367188,-0.5777307748794556
1716557812590691000,12.669691162109375,-4.768404006958008,0.2693901062011719,-0.6834176778793335
1716557812600823000,12.679822998046875,-2.874448776245117,-6.15129280090332,-2.797598123550415
1716557812610954800,12.689954833984375,-0.9256277084350586,-17.005165100097656,-4.556033134460449
1716557812621086700,12.700086669921875,0.7729387283325195,-23.40399169921875,-3.040018081665039
1716557812631218400,12.710218505859375,0.34609317779541016,-19.589664459228516,2.7389628887176514
1716557812641350400,12.720350341796875,9.265058517456055,-9.82812213897705,2.36783504486084
1716557812651482000,12.730482177734375,15.152301788330078,-0.7113485336303711,-1.346456527709961
1716557812661614000,12.740614013671875,10.158263206481934,5.4690046310424805,-9.169428825378418
1716557812671745800,12.750745849609375,-2.322187900543213,7.833639144897461,-16.927526473999023
1716557812681877800,12.760877685546875,-4.62639856338501,8.303265571594238,-18.89599609375
1716557812692009500,12.771009521484375,6.17716121673584,8.038002014160156,-11.939202308654785
1716557812702141400,12.781141357421875,19.167510986328125,7.2924699783325195,-2.194181442260742
1716557812712273200,12.791273193359375,24.678142547607422,4.739265441894531,3.1921536922454834
1716557812722405000,12.801405029296875,20.94213104248047,-0.10448074340820312,1.839501142501831
1716557812732536800,12.811536865234375,13.035977363586426,-4.65841007232666,-0.881068766117096
1716557812742668800,12.821668701171875,2.1419496536254883,-8.56489086151123,-1.2692174911499023
1716557812752800500,12.831800537109375,-8.387004852294922,-11.609461784362793,1.1081565618515015
1716557812762932500,12.841932373046875,-7.94317102432251,-11.754944801330566,3.250408887863159
1716557812773064200,12.852064208984375,-0.7101287841796875,-7.242417335510254,3.916111469268799
1716557812783196200,12.862196044921875,4.897480010986328,-2.519308090209961,3.3471484184265137
1716557812793327900,12.872327880859375,5.454970359802246,0.04326152801513672,2.395718574523926
1716557812803459800,12.8824599609375,3.502892255783081,0.8647661209106445,0.804789125919342
1716557812813591600,12.892591552734375,1.4648659229278564,1.2633657455444336,-0.3854983448982239
1716557812823723500,12.9027236328125,-0.23801136016845703,1.490035057067871,-1.6800878047943115
1716557812833855200,12.912855224609375,-1.5609314441680908,1.6885652542114258,-2.3254523277282715
1716557812843987200,12.9229873046875,-2.07517671585083,2.1990280151367188,-2.226076602935791
1716557812854119000,12.933118896484375,-1.7347304821014404,2.8433828353881836,-1.3721258640289307
1716557812864250600,12.943250732421875,-1.0409557819366455,3.1074934005737305,-0.20117247104644775
1716557812874382600,12.953382568359375,-0.44603490829467773,2.757052421569824,0.8561638593673706
1716557812884514300,12.963514404296875,-0.050313472747802734,1.8841924667358398,1.7172781229019165
1716557812894646300,12.973646240234375,0.3007150888442993,0.8205156326293945,2.3088653087615967
1716557812904778000,12.983778076171875,0.36736464500427246,-0.08504295349121094,2.7633872032165527
1716557812914910000,12.993909912109375,0.12798786163330078,-0.6691379547119141,2.9789302349090576
1716557812925041700,13.004041748046875,-0.403225839138031,-0.9026851654052734,2.915736675262451
1716557812935173600,13.014173583984375,-0.984017550945282,-0.7684469223022461,2.616863250732422
1716557812945305300,13.024305419921875,-1.2696645259857178,-0.2889738082885742,2.0920052528381348
1716557812955437300,13.034437255859375,-1.3823662996292114,0.4206981658935547,1.4031606912612915
1716557812965569000,13.044569091796875,-1.3915101289749146,1.09735107421875,0.61540687084198
1716557812975701000,13.054700927734375,-1.3460235595703125,1.6640129089355469,0.004732847213745117
1716557812985832700,13.064832763671875,-1.1109665632247925,1.9773855209350586,-0.06321609020233154
1716557812995964700,13.074964599609375,-0.736528217792511,1.8832502365112305,0.21404409408569336
1716557813006096400,13.085096435546875,-0.34568145871162415,1.6028308868408203,0.5018988847732544
1716557813016228400,13.095228271484375,-0.41699108481407166,1.127018928527832,0.6560882329940796
1716557813026360000,13.105360107421875,-0.941260576248169,0.6490097045898438,0.6381120681762695
1716557813036492000,13.115491943359375,-1.8089067935943604,0.3092079162597656,0.6942684650421143
1716557813046623700,13.125623779296875,-2.6855950355529785,0.2246723175048828,0.7481505870819092
1716557813056755700,13.135755615234375,-3.181736946105957,0.4098958969116211,0.8201189041137695
1716557813066887400,13.145887451171875,-3.073073625564575,0.7172870635986328,0.8043167591094971
1716557813077019400,13.156019287109375,-2.4706907272338867,0.8489446640014648,0.7633838653564453
1716557813087151000,13.166151123046875,-1.891033411026001,0.829920768737793,0.8733088970184326
1716557813097283000,13.176282958984375,-1.8445440530776978,0.47069263458251953,1.0507175922393799
1716557813107414800,13.186414794921875,-2.2460522651672363,-0.2145977020263672,1.3119382858276367
1716557813117546800,13.196546630859375,-2.7528762817382812,-0.8015995025634766,1.7336149215698242
